timestamp,accel_x_1,accel_y_1,accel_z_1,gyro_roll_1,gyro_pitch_1,gyro_yaw_1,pressure_alt,gps_lat,gps_lon,gps_alt,ecef_x,ecef_y,ecef_z
13867.063500,9.72,-1.82,-0.02,-3.00,1.00,3.00,100166.00,67.89350,21.10510,318.09000,2245846.75,866829.82,5886928.74
13867.163500,9.71,-1.81,-0.02,-3.00,-0.00,2.00,100166.00,67.89350,21.10510,318.09000,2245846.75,866829.82,5886928.74
13867.264900,9.71,-1.80,-0.04,7.00,2.00,0.00,100166.00,67.89350,21.10510,318.09000,2245846.36,866829.67,5886927.73
13867.364900,9.71,-1.80,-0.02,0.00,7.00,2.00,100166.00,67.89350,21.10510,318.09000,2245846.36,866829.67,5886927.73
13867.464900,9.71,-1.82,-0.04,0.00,-1.00,4.00,100166.00,67.89350,21.10510,318.09000,2245846.36,866829.67,5886927.73
13867.564900,9.72,-1.81,-0.04,-3.00,6.00,-2.00,100166.00,67.89350,21.10510,318.09000,2245846.36,866829.67,5886927.73
13867.664900,9.71,-1.82,-0.02,4.00,-0.00,0.00,100166.00,67.89350,21.10510,318.09000,2245846.36,866829.67,5886927.73
13867.764900,9.72,-1.82,-0.02,-3.00,-0.00,-1.00,100166.00,67.89350,21.10510,318.09000,2245846.36,866829.67,5886927.73
13867.896400,9.73,-1.81,-0.02,8.00,4.00,1.00,100166.00,67.89350,21.10510,318.09000,2245846.36,866829.67,5886927.73
13867.964900,9.72,-1.81,-0.03,5.00,-0.00,1.00,100166.00,67.89350,21.10510,318.09000,2245846.36,866829.67,5886927.73
13868.064900,9.71,-1.82,-0.02,2.00,4.00,4.00,100166.00,67.89350,21.10510,318.09000,2245846.36,866829.67,5886927.73
13868.164900,9.71,-1.82,-0.04,5.00,1.00,5.00,100166.00,67.89350,21.10510,318.09000,2245846.36,866829.67,5886927.73
13868.264900,9.70,-1.82,-0.02,-2.00,-4.00,3.00,100166.00,67.89350,21.10510,318.09000,2245846.36,866829.67,5886927.73
13868.364800,9.71,-1.81,-0.02,0.00,1.00,-4.00,100166.00,67.89350,21.10510,318.09000,2245846.36,866829.67,5886927.73
13868.464700,9.72,-1.80,-0.04,-4.00,-0.00,-3.00,100166.00,67.89350,21.10510,318.09000,2245846.36,866829.67,5886927.73
13868.564900,9.71,-1.81,-0.01,-1.00,-0.00,1.00,100166.00,67.89350,21.10510,318.09000,2245846.36,866829.67,5886927.73
13868.664900,9.71,-1.81,-0.01,-1.00,-0.00,4.00,100166.00,67.89350,21.10510,318.09000,2245846.36,866829.67,5886927.73
13868.764900,9.71,-1.81,-0.02,11.00,3.00,-6.00,100166.00,67.89350,21.10510,318.09000,2245846.36,866829.67,5886927.73
13868.864900,9.71,-1.80,-0.02,1.00,3.00,1.00,100166.00,67.89350,21.10510,325.02000,2245846.36,866829.67,5886927.73
13868.990500,9.71,-1.81,-0.03,-6.00,-3.00,7.00,100166.00,67.89350,21.10510,325.02000,2245846.36,866829.67,5886927.73
13869.064900,9.72,-1.81,-0.01,0.00,-0.00,-3.00,100166.00,67.89350,21.10510,325.02000,2245846.36,866829.67,5886927.73
13869.164900,9.73,-1.82,-0.02,6.00,-10.00,0.00,100166.00,67.89350,21.10510,325.02000,2245846.36,866829.67,5886927.73
13869.263900,9.71,-1.80,-0.01,-1.00,-3.00,0.00,100166.00,67.89340,21.10510,325.02000,2245858.44,866834.33,5886929.95
13869.364200,9.73,-1.80,-0.02,6.00,-6.00,-1.00,100166.00,67.89340,21.10510,325.02000,2245858.44,866834.33,5886929.95
13869.464100,9.72,-1.81,-0.02,2.00,-5.00,4.00,100166.00,67.89340,21.10510,325.02000,2245858.44,866834.33,5886929.95
13869.564100,9.71,-1.80,-0.02,1.00,5.00,0.00,100166.00,67.89340,21.10510,325.02000,2245858.44,866834.33,5886929.95
13869.664100,9.72,-1.81,-0.02,7.00,1.00,0.00,100166.00,67.89340,21.10510,325.02000,2245858.44,866834.33,5886929.95
13869.764100,9.72,-1.83,-0.02,-1.00,-3.00,0.00,100166.00,67.89340,21.10510,325.02000,2245858.44,866834.33,5886929.95
13869.864100,9.73,-1.82,-0.02,-1.00,6.00,-3.00,100166.00,67.89340,21.10510,325.02000,2245858.44,866834.33,5886929.95
13869.964100,9.72,-1.82,-0.02,3.00,1.00,-2.00,100162.00,67.89340,21.10510,325.02000,2245858.44,866834.33,5886929.95
13870.089900,9.71,-1.81,-0.04,-1.00,-4.00,-2.00,100162.00,67.89340,21.10510,325.02000,2245858.44,866834.33,5886929.95
13870.164200,9.71,-1.82,-0.03,4.00,-1.00,0.00,100162.00,67.89340,21.10510,325.02000,2245858.44,866834.33,5886929.95
13870.264900,9.71,-1.81,-0.02,4.00,-2.00,-1.00,100162.00,67.89340,21.10510,325.02000,2245858.44,866834.33,5886929.95
13870.364900,9.71,-1.80,-0.02,-2.00,-0.00,0.00,100162.00,67.89340,21.10510,325.02000,2245858.44,866834.33,5886929.95
13870.464900,9.71,-1.80,-0.02,-9.00,-2.00,1.00,100162.00,67.89340,21.10510,325.02000,2245858.44,866834.33,5886929.95
13870.564900,9.72,-1.81,-0.03,3.00,-0.00,-1.00,100162.00,67.89340,21.10510,325.02000,2245858.44,866834.33,5886929.95
13870.664900,9.72,-1.81,-0.03,-2.00,-3.00,-3.00,100162.00,67.89340,21.10510,325.02000,2245858.44,866834.33,5886929.95
13870.764700,9.71,-1.82,-0.03,0.00,-0.00,-8.00,100162.00,67.89340,21.10510,325.02000,2245858.44,866834.33,5886929.95
13870.864900,9.70,-1.82,-0.02,-2.00,-5.00,0.00,100162.00,67.89340,21.10510,332.14000,2245858.44,866834.33,5886929.95
13870.964900,9.71,-1.82,-0.02,0.00,1.00,0.00,100162.00,67.89340,21.10510,332.14000,2245858.44,866834.33,5886929.95
13871.064700,9.72,-1.82,-0.02,-2.00,-4.00,1.00,100162.00,67.89340,21.10520,332.14000,2245858.44,866834.33,5886929.95
13871.169200,9.72,-1.82,-0.03,1.00,-0.00,7.00,100162.00,67.89340,21.10520,332.14000,2245858.44,866834.33,5886929.95
13871.264900,9.71,-1.81,-0.03,0.00,-0.00,0.00,100162.00,67.89340,21.10520,332.14000,2245859.42,866839.21,5886936.55
13871.364900,9.72,-1.80,-0.02,0.00,5.00,2.00,100162.00,67.89340,21.10520,332.14000,2245859.42,866839.21,5886936.55
13871.464700,9.71,-1.82,-0.02,0.00,-3.00,1.00,100162.00,67.89340,21.10520,332.14000,2245859.42,866839.21,5886936.55
13871.564900,9.73,-1.82,-0.02,0.00,-0.00,4.00,100162.00,67.89340,21.10520,332.14000,2245859.42,866839.21,5886936.55
13871.664900,9.71,-1.82,-0.03,-5.00,-7.00,1.00,100162.00,67.89340,21.10520,332.14000,2245859.42,866839.21,5886936.55
13871.764900,9.72,-1.81,-0.03,0.00,-0.00,0.00,100162.00,67.89340,21.10520,332.14000,2245859.42,866839.21,5886936.55
13871.864900,9.73,-1.80,-0.03,-6.00,-10.00,2.00,100162.00,67.89340,21.10520,332.14000,2245859.42,866839.21,5886936.55
13871.964900,9.73,-1.82,-0.03,1.00,-5.00,0.00,100162.00,67.89340,21.10520,332.14000,2245859.42,866839.21,5886936.55
13872.065000,9.72,-1.81,-0.03,-2.00,-0.00,0.00,100162.00,67.89340,21.10520,332.14000,2245859.42,866839.21,5886936.55
13872.164900,9.72,-1.82,-0.02,-7.00,-2.00,-3.00,100162.00,67.89340,21.10520,332.14000,2245859.42,866839.21,5886936.55
13872.246000,9.72,-1.82,-0.02,1.00,5.00,0.00,100162.00,67.89340,21.10520,332.14000,2245859.42,866839.21,5886936.55
13872.343200,9.72,-1.82,-0.02,0.00,-4.00,-9.00,100162.00,67.89340,21.10520,332.14000,2245859.42,866839.21,5886936.55
13872.443000,9.72,-1.81,0.00,3.00,1.00,2.00,100162.00,67.89340,21.10520,332.14000,2245859.42,866839.21,5886936.55
13872.543000,9.71,-1.81,-0.02,0.00,1.00,0.00,100162.00,67.89340,21.10520,332.14000,2245859.42,866839.21,5886936.55
13872.643000,9.73,-1.81,-0.01,1.00,-0.00,0.00,100162.00,67.89340,21.10520,332.14000,2245859.42,866839.21,5886936.55
13872.742900,9.72,-1.81,-0.02,-5.00,-4.00,8.00,100162.00,67.89340,21.10520,332.14000,2245859.42,866839.21,5886936.55
13872.843000,9.73,-1.81,-0.02,-1.00,-2.00,2.00,100162.00,67.89340,21.10520,344.50000,2245859.42,866839.21,5886936.55
13872.943100,9.73,-1.81,-0.02,7.00,4.00,4.00,100169.00,67.89340,21.10520,344.50000,2245859.42,866839.21,5886936.55
13873.043100,9.72,-1.81,-0.02,1.00,-2.00,0.00,100169.00,67.89340,21.10530,344.50000,2245859.42,866839.21,5886936.55
13873.143100,9.72,-1.81,-0.01,-1.00,-2.00,3.00,100169.00,67.89340,21.10530,344.50000,2245859.42,866839.21,5886936.55
13873.264900,9.73,-1.79,-0.02,0.00,1.00,-4.00,100169.00,67.89340,21.10530,344.50000,2245862.25,866844.81,5886948.00
13873.364900,9.71,-1.83,-0.02,-1.00,-0.00,0.00,100169.00,67.89340,21.10530,344.50000,2245862.25,866844.81,5886948.00
13873.464800,9.71,-1.80,-0.03,3.00,1.00,-1.00,100169.00,67.89340,21.10530,344.50000,2245862.25,866844.81,5886948.00
13873.564900,9.73,-1.80,-0.02,5.00,2.00,5.00,100169.00,67.89340,21.10530,344.50000,2245862.25,866844.81,5886948.00
13873.664900,9.71,-1.82,-0.02,1.00,-1.00,-2.00,100169.00,67.89340,21.10530,344.50000,2245862.25,866844.81,5886948.00
13873.764900,9.73,-1.82,-0.04,0.00,2.00,0.00,100169.00,67.89340,21.10530,344.50000,2245862.25,866844.81,5886948.00
13873.864800,9.72,-1.82,-0.03,6.00,-3.00,0.00,100169.00,67.89340,21.10530,344.50000,2245862.25,866844.81,5886948.00
13873.964800,9.72,-1.82,-0.01,4.00,-0.00,3.00,100169.00,67.89340,21.10530,344.50000,2245862.25,866844.81,5886948.00
13874.064900,9.71,-1.80,-0.02,0.00,-6.00,5.00,100169.00,67.89340,21.10530,344.50000,2245862.25,866844.81,5886948.00
13874.164900,9.73,-1.81,-0.02,0.00,-0.00,3.00,100169.00,67.89340,21.10530,344.50000,2245862.25,866844.81,5886948.00
13874.264800,9.71,-1.81,-0.02,2.00,11.00,7.00,100169.00,67.89340,21.10530,344.50000,2245862.25,866844.81,5886948.00
13874.364900,9.72,-1.82,-0.02,-1.00,2.00,1.00,100169.00,67.89340,21.10530,344.50000,2245862.25,866844.81,5886948.00
13874.464900,9.71,-1.81,-0.02,3.00,-5.00,-1.00,100169.00,67.89340,21.10530,344.50000,2245862.25,866844.81,5886948.00
13874.564800,9.71,-1.82,-0.03,1.00,-0.00,4.00,100169.00,67.89340,21.10530,344.50000,2245862.25,866844.81,5886948.00
13874.664800,9.71,-1.82,-0.03,2.00,2.00,4.00,100169.00,67.89340,21.10530,344.50000,2245862.25,866844.81,5886948.00
13874.764800,9.71,-1.81,-0.02,0.00,2.00,0.00,100169.00,67.89340,21.10530,344.50000,2245862.25,866844.81,5886948.00
13874.864800,9.73,-1.82,-0.02,4.00,-0.00,-5.00,100169.00,67.89340,21.10530,347.58000,2245862.25,866844.81,5886948.00
13874.964800,9.71,-1.81,-0.01,3.00,-0.00,2.00,100169.00,67.89340,21.10530,347.58000,2245862.25,866844.81,5886948.00
13875.064900,9.72,-1.80,-0.02,1.00,-1.00,0.00,100169.00,67.89340,21.10530,347.58000,2245862.25,866844.81,5886948.00
13875.164700,9.71,-1.81,-0.03,3.00,-2.00,-3.00,100169.00,67.89340,21.10530,347.58000,2245862.25,866844.81,5886948.00
13875.262200,9.71,-1.80,-0.03,7.00,2.00,-2.00,100169.00,67.89340,21.10530,347.58000,2245863.33,866845.22,5886950.85
13875.362100,9.73,-1.80,-0.03,2.00,-1.00,3.00,100169.00,67.89340,21.10530,347.58000,2245863.33,866845.22,5886950.85
13875.507600,9.72,-1.81,-0.02,5.00,-2.00,-1.00,100169.00,67.89340,21.10530,347.58000,2245863.33,866845.22,5886950.85
13875.562200,9.71,-1.80,-0.03,3.00,1.00,1.00,100169.00,67.89340,21.10530,347.58000,2245863.33,866845.22,5886950.85
13875.662100,9.71,-1.80,-0.01,-3.00,2.00,0.00,100169.00,67.89340,21.10530,347.58000,2245863.33,866845.22,5886950.85
13875.762200,9.72,-1.81,-0.03,0.00,6.00,3.00,100169.00,67.89340,21.10530,347.58000,2245863.33,866845.22,5886950.85
13875.862200,9.71,-1.81,-0.02,-3.00,3.00,-1.00,100169.00,67.89340,21.10530,347.58000,2245863.33,866845.22,5886950.85
13875.962300,9.73,-1.81,-0.02,-1.00,-2.00,0.00,72801.00,67.89340,21.10530,347.58000,2245863.33,866845.22,5886950.85
13876.062300,9.71,-1.82,-0.03,3.00,6.00,4.00,72801.00,67.89340,21.10530,347.58000,2245863.33,866845.22,5886950.85
13876.162300,9.70,-1.81,-0.02,0.00,-1.00,3.00,72801.00,67.89340,21.10530,347.58000,2245863.33,866845.22,5886950.85
13876.264900,9.72,-1.82,-0.01,-4.00,-2.00,-6.00,72801.00,67.89340,21.10530,347.58000,2245863.33,866845.22,5886950.85
13876.364900,9.71,-1.82,-0.02,-13.00,3.00,0.00,72801.00,67.89340,21.10530,347.58000,2245863.33,866845.22,5886950.85
13876.464700,9.71,-1.81,-0.03,-3.00,-1.00,4.00,72801.00,67.89340,21.10530,347.58000,2245863.33,866845.22,5886950.85
13876.892700,9.72,-1.82,-0.04,2.00,2.00,0.00,72801.00,67.89340,21.10530,347.58000,2245863.33,866845.22,5886950.85
13876.925400,9.73,-1.82,-0.04,3.00,-3.00,-1.00,72801.00,67.89340,21.10530,347.58000,2245863.33,866845.22,5886950.85
13876.958000,9.73,-1.81,-0.03,3.00,-0.00,4.00,72801.00,67.89340,21.10530,347.58000,2245863.33,866845.22,5886950.85
13876.990500,9.71,-1.81,-0.02,4.00,1.00,0.00,72801.00,67.89340,21.10530,347.58000,2245863.33,866845.22,5886950.85
13877.023100,9.72,-1.82,-0.03,0.00,7.00,0.00,72801.00,67.89340,21.10530,347.58000,2245863.33,866845.22,5886950.85
13877.065600,9.72,-1.80,-0.01,-2.00,-0.00,5.00,72801.00,67.89340,21.10530,340.18000,2245863.33,866845.22,5886950.85
13877.164900,9.71,-1.81,-0.04,2.00,2.00,3.00,72801.00,67.89340,21.10530,340.18000,2245863.33,866845.22,5886950.85
13877.264600,9.71,-1.82,-0.03,-7.00,-2.00,4.00,72801.00,67.89340,21.10530,340.18000,2245860.73,866844.22,5886943.99
13877.364900,9.72,-1.81,-0.01,-3.00,5.00,4.00,72801.00,67.89340,21.10530,340.18000,2245860.73,866844.22,5886943.99
13877.464600,9.71,-1.81,-0.03,-2.00,3.00,2.00,72801.00,67.89340,21.10530,340.18000,2245860.73,866844.22,5886943.99
13877.564800,9.71,-1.82,-0.02,3.00,-3.00,2.00,72801.00,67.89340,21.10530,340.18000,2245860.73,866844.22,5886943.99
13877.687700,9.72,-1.80,-0.03,-5.00,1.00,-5.00,72801.00,67.89340,21.10530,340.18000,2245860.73,866844.22,5886943.99
13877.764800,9.71,-1.81,-0.01,1.00,-0.00,2.00,72801.00,67.89340,21.10530,340.18000,2245860.73,866844.22,5886943.99
13877.864800,9.71,-1.81,-0.02,0.00,-2.00,-5.00,72801.00,67.89340,21.10530,340.18000,2245860.73,866844.22,5886943.99
13877.964800,9.72,-1.82,-0.02,4.00,1.00,0.00,72801.00,67.89340,21.10530,340.18000,2245860.73,866844.22,5886943.99
13878.064900,9.71,-1.81,-0.02,-3.00,-0.00,1.00,72801.00,67.89340,21.10530,340.18000,2245860.73,866844.22,5886943.99
13878.164900,9.73,-1.81,-0.03,0.00,2.00,5.00,72801.00,67.89340,21.10530,340.18000,2245860.73,866844.22,5886943.99
13878.261900,9.73,-1.81,-0.02,2.00,-2.00,-1.00,72801.00,67.89340,21.10530,340.18000,2245860.73,866844.22,5886943.99
13878.362000,9.72,-1.82,-0.02,8.00,-1.00,7.00,72801.00,67.89340,21.10530,340.18000,2245860.73,866844.22,5886943.99
13878.461800,9.72,-1.81,-0.02,-4.00,5.00,0.00,72801.00,67.89340,21.10530,340.18000,2245860.73,866844.22,5886943.99
13878.561900,9.73,-1.80,-0.03,-6.00,2.00,0.00,72801.00,67.89340,21.10530,340.18000,2245860.73,866844.22,5886943.99
13878.661900,9.71,-1.82,-0.02,-1.00,-5.00,-1.00,72801.00,67.89340,21.10530,340.18000,2245860.73,866844.22,5886943.99
13878.765200,9.72,-1.80,-0.02,-2.00,-11.00,3.00,72801.00,67.89340,21.10530,340.18000,2245860.73,866844.22,5886943.99
13878.861900,9.72,-1.81,-0.02,6.00,3.00,0.00,72801.00,67.89340,21.10530,329.97000,2245860.73,866844.22,5886943.99
13878.961900,9.72,-1.81,-0.03,0.00,-2.00,-2.00,100166.00,67.89340,21.10530,329.97000,2245860.73,866844.22,5886943.99
13879.062000,9.72,-1.80,-0.03,2.00,1.00,3.00,100166.00,67.89340,21.10530,329.97000,2245860.73,866844.22,5886943.99
13879.162000,9.72,-1.81,-0.02,5.00,2.00,-4.00,100166.00,67.89340,21.10530,329.97000,2245860.73,866844.22,5886943.99
13879.265800,9.73,-1.82,-0.02,-1.00,1.00,0.00,100166.00,67.89350,21.10520,329.97000,2245849.02,866835.20,5886938.73
13879.365800,9.72,-1.81,-0.02,5.00,3.00,1.00,100166.00,67.89350,21.10520,329.97000,2245849.02,866835.20,5886938.73
13879.465800,9.72,-1.82,-0.02,3.00,-2.00,0.00,100166.00,67.89350,21.10520,329.97000,2245849.02,866835.20,5886938.73
13879.565800,9.72,-1.81,-0.02,-2.00,1.00,0.00,100166.00,67.89350,21.10520,329.97000,2245849.02,866835.20,5886938.73
13879.665800,9.72,-1.81,-0.01,2.00,-3.00,2.00,100166.00,67.89350,21.10520,329.97000,2245849.02,866835.20,5886938.73
13879.765800,9.71,-1.82,-0.02,2.00,1.00,-4.00,100166.00,67.89350,21.10520,329.97000,2245849.02,866835.20,5886938.73
13879.868800,9.73,-1.80,-0.03,0.00,-4.00,4.00,100166.00,67.89350,21.10520,329.97000,2245849.02,866835.20,5886938.73
13879.965800,9.71,-1.82,-0.04,-6.00,-2.00,5.00,100166.00,67.89350,21.10520,329.97000,2245849.02,866835.20,5886938.73
13880.065800,9.73,-1.81,-0.02,3.00,-0.00,9.00,100166.00,67.89350,21.10520,329.97000,2245849.02,866835.20,5886938.73
13880.165800,9.72,-1.80,-0.01,2.00,2.00,0.00,100166.00,67.89350,21.10520,329.97000,2245849.02,866835.20,5886938.73
13880.265800,9.73,-1.80,-0.01,-3.00,-1.00,-1.00,100166.00,67.89350,21.10520,329.97000,2245849.02,866835.20,5886938.73
13880.365600,9.72,-1.80,-0.02,-5.00,-0.00,-1.00,100166.00,67.89350,21.10520,329.97000,2245849.02,866835.20,5886938.73
13880.465800,9.73,-1.82,-0.02,2.00,-1.00,5.00,100166.00,67.89350,21.10520,329.97000,2245849.02,866835.20,5886938.73
13880.565800,9.72,-1.82,-0.01,0.00,-4.00,0.00,100166.00,67.89350,21.10520,329.97000,2245849.02,866835.20,5886938.73
13880.665800,9.72,-1.81,-0.02,-2.00,-0.00,0.00,100166.00,67.89350,21.10520,329.97000,2245849.02,866835.20,5886938.73
13880.765800,9.72,-1.81,-0.03,7.00,-0.00,-4.00,100166.00,67.89350,21.10520,329.97000,2245849.02,866835.20,5886938.73
13880.865800,9.71,-1.82,-0.03,-10.00,3.00,1.00,100166.00,67.89350,21.10520,328.08000,2245849.02,866835.20,5886938.73
13880.965800,9.71,-1.81,-0.02,-12.00,-4.00,0.00,100166.00,67.89350,21.10520,328.08000,2245849.02,866835.20,5886938.73
13881.065800,9.72,-1.82,-0.02,4.00,-5.00,0.00,100166.00,67.89350,21.10520,328.08000,2245849.02,866835.20,5886938.73
13881.165800,9.73,-1.81,-0.01,0.00,5.00,-1.00,100166.00,67.89350,21.10520,328.08000,2245849.02,866835.20,5886938.73
13881.262900,9.71,-1.81,-0.03,1.00,-5.00,1.00,100166.00,67.89350,21.10520,328.08000,2245848.36,866834.94,5886936.98
13881.362900,9.72,-1.81,-0.01,0.00,3.00,-4.00,100166.00,67.89350,21.10520,328.08000,2245848.36,866834.94,5886936.98
13881.462900,9.71,-1.82,-0.02,0.00,4.00,4.00,100166.00,67.89350,21.10520,328.08000,2245848.36,866834.94,5886936.98
13881.562900,9.72,-1.80,-0.03,-3.00,-3.00,-2.00,100166.00,67.89350,21.10520,328.08000,2245848.36,866834.94,5886936.98
13881.662900,9.72,-1.81,-0.03,1.00,3.00,0.00,100166.00,67.89350,21.10520,328.08000,2245848.36,866834.94,5886936.98
13881.762700,9.72,-1.81,-0.03,-2.00,-3.00,3.00,100166.00,67.89350,21.10520,328.08000,2245848.36,866834.94,5886936.98
13881.862900,9.71,-1.81,-0.02,4.00,2.00,0.00,100166.00,67.89350,21.10520,328.08000,2245848.36,866834.94,5886936.98
13881.962900,9.72,-1.82,-0.02,-1.00,1.00,2.00,100167.00,67.89350,21.10520,328.08000,2245848.36,866834.94,5886936.98
13882.062900,9.71,-1.80,-0.02,-2.00,-2.00,2.00,100167.00,67.89350,21.10520,328.08000,2245848.36,866834.94,5886936.98
13882.162900,9.73,-1.80,-0.02,1.00,-1.00,0.00,100167.00,67.89350,21.10520,328.08000,2245848.36,866834.94,5886936.98
13882.265800,9.72,-1.81,-0.02,1.00,1.00,0.00,100167.00,67.89350,21.10520,328.08000,2245848.36,866834.94,5886936.98
13882.365900,9.72,-1.81,-0.02,0.00,-0.00,0.00,100167.00,67.89350,21.10520,328.08000,2245848.36,866834.94,5886936.98
13882.465800,9.72,-1.81,-0.01,-1.00,-9.00,0.00,100167.00,67.89350,21.10520,328.08000,2245848.36,866834.94,5886936.98
13882.565800,9.73,-1.80,-0.03,2.00,4.00,3.00,100167.00,67.89350,21.10520,328.08000,2245848.36,866834.94,5886936.98
13882.665800,9.71,-1.81,-0.03,3.00,1.00,0.00,100167.00,67.89350,21.10520,328.08000,2245848.36,866834.94,5886936.98
13882.765800,9.71,-1.82,-0.01,-1.00,1.00,-1.00,100167.00,67.89350,21.10520,328.08000,2245848.36,866834.94,5886936.98
13882.865800,9.73,-1.81,-0.03,-3.00,-4.00,1.00,100167.00,67.89350,21.10520,323.77000,2245848.36,866834.94,5886936.98
13882.965800,9.73,-1.80,-0.02,-1.00,3.00,-4.00,100167.00,67.89350,21.10520,323.77000,2245848.36,866834.94,5886936.98
13883.094300,9.73,-1.81,-0.02,3.00,-7.00,-3.00,100167.00,67.89350,21.10520,323.77000,2245848.36,866834.94,5886936.98
13883.165900,9.71,-1.80,-0.03,2.00,-3.00,-4.00,100167.00,67.89350,21.10520,323.77000,2245848.36,866834.94,5886936.98
13883.265800,9.70,-1.81,-0.03,-1.00,3.00,0.00,100167.00,67.89350,21.10520,323.77000,2245846.84,866834.36,5886932.99
13883.365900,9.72,-1.81,-0.03,3.00,-2.00,-3.00,100167.00,67.89350,21.10520,323.77000,2245846.84,866834.36,5886932.99
13883.465900,9.71,-1.83,-0.03,-1.00,-0.00,0.00,100167.00,67.89350,21.10520,323.77000,2245846.84,866834.36,5886932.99
13883.565800,9.73,-1.81,-0.02,-4.00,-0.00,-2.00,100167.00,67.89350,21.10520,323.77000,2245846.84,866834.36,5886932.99
13883.665800,9.73,-1.81,-0.02,-3.00,-8.00,7.00,100167.00,67.89350,21.10520,323.77000,2245846.84,866834.36,5886932.99
13883.765900,9.71,-1.81,-0.01,3.00,-0.00,-1.00,100167.00,67.89350,21.10520,323.77000,2245846.84,866834.36,5886932.99
13883.865700,9.71,-1.82,-0.01,0.00,-2.00,1.00,100167.00,67.89350,21.10520,323.77000,2245846.84,866834.36,5886932.99
13883.965800,9.73,-1.81,-0.01,4.00,4.00,-5.00,100167.00,67.89350,21.10520,323.77000,2245846.84,866834.36,5886932.99
13884.065900,9.72,-1.80,-0.04,4.00,2.00,-2.00,100167.00,67.89350,21.10520,323.77000,2245846.84,866834.36,5886932.99
13884.189800,9.73,-1.80,-0.03,-8.00,4.00,-1.00,100167.00,67.89350,21.10520,323.77000,2245846.84,866834.36,5886932.99
13884.262800,9.71,-1.82,-0.01,0.00,-0.00,1.00,100167.00,67.89350,21.10520,323.77000,2245846.84,866834.36,5886932.99
13884.362900,9.73,-1.81,-0.03,-2.00,3.00,0.00,100167.00,67.89350,21.10520,323.77000,2245846.84,866834.36,5886932.99
13884.462800,9.71,-1.82,-0.02,4.00,-2.00,5.00,100167.00,67.89350,21.10520,323.77000,2245846.84,866834.36,5886932.99
13884.562800,9.72,-1.81,-0.02,-4.00,4.00,2.00,100167.00,67.89350,21.10520,323.77000,2245846.84,866834.36,5886932.99
13884.662800,9.71,-1.81,-0.02,-2.00,-0.00,4.00,100167.00,67.89350,21.10520,323.77000,2245846.84,866834.36,5886932.99
13884.762800,9.72,-1.82,-0.02,-5.00,-1.00,0.00,100167.00,67.89350,21.10520,323.77000,2245846.84,866834.36,5886932.99
13884.862800,9.73,-1.82,-0.02,1.00,-0.00,0.00,100167.00,67.89350,21.10520,323.58000,2245846.84,866834.36,5886932.99
13884.962800,9.71,-1.82,-0.03,4.00,5.00,-2.00,100170.00,67.89350,21.10520,323.58000,2245846.84,866834.36,5886932.99
13885.062900,9.72,-1.82,-0.01,5.00,3.00,-5.00,100170.00,67.89350,21.10520,323.58000,2245846.84,866834.36,5886932.99
13885.162900,9.72,-1.82,-0.03,3.00,-0.00,0.00,100170.00,67.89350,21.10520,323.58000,2245846.84,866834.36,5886932.99
13885.288300,9.73,-1.80,-0.02,1.00,-0.00,0.00,100170.00,67.89350,21.10520,323.58000,2245846.84,866834.36,5886932.99
13885.364900,9.72,-1.80,-0.02,7.00,-0.00,-1.00,100170.00,67.89350,21.10510,323.58000,2245848.29,866830.41,5886932.81
13885.464800,9.71,-1.80,-0.01,-3.00,-0.00,0.00,100170.00,67.89350,21.10510,323.58000,2245848.29,866830.41,5886932.81
13885.564900,9.71,-1.81,-0.02,-8.00,-5.00,-2.00,100170.00,67.89350,21.10510,323.58000,2245848.29,866830.41,5886932.81
13885.664800,9.71,-1.82,-0.02,0.00,-1.00,2.00,100170.00,67.89350,21.10510,323.58000,2245848.29,866830.41,5886932.81
13885.764800,9.71,-1.81,-0.01,0.00,-3.00,0.00,100170.00,67.89350,21.10510,323.58000,2245848.29,866830.41,5886932.81
13885.864900,9.71,-1.81,-0.03,0.00,-3.00,1.00,100170.00,67.89350,21.10510,323.58000,2245848.29,866830.41,5886932.81
13885.964800,9.73,-1.82,-0.01,3.00,8.00,2.00,100170.00,67.89350,21.10510,323.58000,2245848.29,866830.41,5886932.81
13886.064900,9.72,-1.81,-0.01,-1.00,-0.00,1.00,100170.00,67.89350,21.10510,323.58000,2245848.29,866830.41,5886932.81
13886.164900,9.72,-1.81,-0.02,0.00,2.00,-1.00,100170.00,67.89350,21.10510,323.58000,2245848.29,866830.41,5886932.81
13886.262900,9.72,-1.81,-0.02,-1.00,-3.00,0.00,100170.00,67.89350,21.10510,323.58000,2245848.29,866830.41,5886932.81
13886.379400,9.73,-1.82,-0.03,-3.00,-0.00,-5.00,100170.00,67.89350,21.10510,323.58000,2245848.29,866830.41,5886932.81
13886.463000,9.72,-1.80,-0.03,1.00,-3.00,1.00,100170.00,67.89350,21.10510,323.58000,2245848.29,866830.41,5886932.81
13886.562900,9.71,-1.81,-0.02,-1.00,5.00,2.00,100170.00,67.89350,21.10510,323.58000,2245848.29,866830.41,5886932.81
13886.662900,9.71,-1.81,-0.02,3.00,-0.00,-1.00,100170.00,67.89350,21.10510,323.58000,2245848.29,866830.41,5886932.81
13886.763000,9.72,-1.80,-0.01,1.00,-1.00,-5.00,100170.00,67.89350,21.10510,323.58000,2245848.29,866830.41,5886932.81
13886.862900,9.71,-1.81,-0.02,5.00,-2.00,-3.00,100170.00,67.89350,21.10510,330.39000,2245848.29,866830.41,5886932.81
13886.962900,9.71,-1.80,-0.02,0.00,4.00,1.00,100170.00,67.89350,21.10510,330.39000,2245848.29,866830.41,5886932.81
13887.063000,9.72,-1.81,-0.02,0.00,4.00,1.00,100170.00,67.89350,21.10510,330.39000,2245848.29,866830.41,5886932.81
13887.163000,9.71,-1.81,-0.03,4.00,-0.00,3.00,100170.00,67.89350,21.10510,330.39000,2245848.29,866830.41,5886932.81
13887.261800,9.73,-1.80,-0.01,3.00,-0.00,-1.00,100170.00,67.89350,21.10510,330.39000,2245850.68,866831.33,5886939.12
13887.361900,9.73,-1.81,-0.02,0.00,2.00,-6.00,100170.00,67.89350,21.10510,330.39000,2245850.68,866831.33,5886939.12
13887.763100,9.72,-1.82,-0.03,-5.00,-1.00,0.00,100170.00,67.89350,21.10510,330.39000,2245850.68,866831.33,5886939.12
13887.795800,9.72,-1.82,-0.02,0.00,-0.00,-5.00,100170.00,67.89350,21.10510,330.39000,2245850.68,866831.33,5886939.12
13887.828200,9.72,-1.82,-0.02,-1.00,-4.00,0.00,100170.00,67.89350,21.10510,330.39000,2245850.68,866831.33,5886939.12
13887.860800,9.71,-1.81,-0.02,2.00,-2.00,4.00,100170.00,67.89350,21.10510,330.39000,2245850.68,866831.33,5886939.12
13887.893400,9.72,-1.82,-0.04,4.00,4.00,-2.00,100170.00,67.89350,21.10510,330.39000,2245850.68,866831.33,5886939.12
13887.961800,9.72,-1.83,-0.03,0.00,6.00,-2.00,-193176.00,67.89350,21.10510,330.39000,2245850.68,866831.33,5886939.12
13888.061800,9.71,-1.82,-0.02,-1.00,8.00,-4.00,-193176.00,67.89350,21.10510,330.39000,2245850.68,866831.33,5886939.12
13888.161900,9.71,-1.81,-0.01,4.00,-0.00,-3.00,-193176.00,67.89350,21.10510,330.39000,2245850.68,866831.33,5886939.12
13888.264800,9.72,-1.82,-0.02,-2.00,1.00,-1.00,-193176.00,67.89350,21.10510,330.39000,2245850.68,866831.33,5886939.12
13888.364800,9.71,-1.80,-0.01,-1.00,1.00,0.00,-193176.00,67.89350,21.10510,330.39000,2245850.68,866831.33,5886939.12
13888.464800,9.71,-1.82,-0.02,-2.00,4.00,5.00,-193176.00,67.89350,21.10510,330.39000,2245850.68,866831.33,5886939.12
13888.564600,9.72,-1.81,-0.03,2.00,-0.00,1.00,-193176.00,67.89350,21.10510,330.39000,2245850.68,866831.33,5886939.12
13888.664800,9.72,-1.82,-0.03,1.00,-0.00,7.00,-193176.00,67.89350,21.10510,330.39000,2245850.68,866831.33,5886939.12
13888.764800,9.72,-1.81,-0.02,-6.00,-0.00,4.00,-193176.00,67.89350,21.10510,330.39000,2245850.68,866831.33,5886939.12
13888.864900,9.71,-1.81,-0.02,-1.00,3.00,-4.00,-193176.00,67.89350,21.10510,331.42000,2245850.68,866831.33,5886939.12
13888.964800,9.72,-1.82,-0.02,1.00,-3.00,0.00,-193176.00,67.89350,21.10510,331.42000,2245850.68,866831.33,5886939.12
13889.064800,9.72,-1.81,-0.02,-1.00,-0.00,-2.00,-193176.00,67.89350,21.10510,331.42000,2245850.68,866831.33,5886939.12
13889.164900,9.72,-1.81,-0.02,0.00,-0.00,0.00,-193176.00,67.89350,21.10510,331.42000,2245850.68,866831.33,5886939.12
13889.264800,9.71,-1.82,-0.02,2.00,1.00,-1.00,-193176.00,67.89350,21.10510,331.42000,2245851.04,866831.47,5886940.08
13889.364800,9.72,-1.82,-0.02,0.00,-4.00,2.00,-193176.00,67.89350,21.10510,331.42000,2245851.04,866831.47,5886940.08
13889.464800,9.71,-1.80,-0.03,0.00,3.00,6.00,-193176.00,67.89350,21.10510,331.42000,2245851.04,866831.47,5886940.08
13889.564800,9.72,-1.81,-0.04,-2.00,-1.00,-1.00,-193176.00,67.89350,21.10510,331.42000,2245851.04,866831.47,5886940.08
13889.664800,9.72,-1.80,-0.02,0.00,-1.00,-1.00,-193176.00,67.89350,21.10510,331.42000,2245851.04,866831.47,5886940.08
13889.764800,9.72,-1.83,-0.01,1.00,-5.00,-2.00,-193176.00,67.89350,21.10510,331.42000,2245851.04,866831.47,5886940.08
13889.864800,9.71,-1.80,-0.02,-6.00,-4.00,0.00,-193176.00,67.89350,21.10510,331.42000,2245851.04,866831.47,5886940.08
13889.964800,9.71,-1.80,-0.02,-5.00,3.00,-4.00,-193176.00,67.89350,21.10510,331.42000,2245851.04,866831.47,5886940.08
13890.064900,9.72,-1.80,-0.02,-2.00,4.00,1.00,-193176.00,67.89350,21.10510,331.42000,2245851.04,866831.47,5886940.08
13890.164900,9.72,-1.82,-0.02,-2.00,1.00,0.00,-193176.00,67.89350,21.10510,331.42000,2245851.04,866831.47,5886940.08
13890.261800,9.71,-1.81,-0.03,-3.00,-0.00,3.00,-193176.00,67.89350,21.10510,331.42000,2245851.04,866831.47,5886940.08
13890.361900,9.71,-1.81,-0.01,2.00,-1.00,-3.00,-193176.00,67.89350,21.10510,331.42000,2245851.04,866831.47,5886940.08
13890.461800,9.71,-1.82,-0.02,0.00,-3.00,4.00,-193176.00,67.89350,21.10510,331.42000,2245851.04,866831.47,5886940.08
13890.561800,9.71,-1.81,-0.02,0.00,-0.00,4.00,-193176.00,67.89350,21.10510,331.42000,2245851.04,866831.47,5886940.08
13890.687500,9.70,-1.80,-0.04,3.00,1.00,2.00,-193176.00,67.89350,21.10510,331.42000,2245851.04,866831.47,5886940.08
13890.761700,9.72,-1.81,-0.02,-2.00,-0.00,-4.00,-193176.00,67.89350,21.10510,331.42000,2245851.04,866831.47,5886940.08
13890.861900,9.71,-1.82,-0.02,0.00,-6.00,-1.00,-193176.00,67.89350,21.10510,339.96000,2245851.04,866831.47,5886940.08
13890.961800,9.72,-1.82,-0.03,-2.00,1.00,1.00,-7004.00,67.89350,21.10510,339.96000,2245851.04,866831.47,5886940.08
13891.061900,9.72,-1.81,-0.02,1.00,2.00,-2.00,-7004.00,67.89350,21.10510,339.96000,2245851.04,866831.47,5886940.08
13891.161900,9.71,-1.81,-0.02,10.00,-0.00,-2.00,-7004.00,67.89350,21.10510,339.96000,2245851.04,866831.47,5886940.08
13891.265800,9.71,-1.82,-0.02,1.00,-0.00,0.00,-7004.00,67.89350,21.10510,339.96000,2245854.04,866832.63,5886947.99
13891.365800,9.71,-1.81,-0.02,3.00,8.00,3.00,-7004.00,67.89350,21.10510,339.96000,2245854.04,866832.63,5886947.99
13891.465600,9.71,-1.81,-0.02,6.00,-1.00,-5.00,-7004.00,67.89350,21.10510,339.96000,2245854.04,866832.63,5886947.99
13891.565800,9.73,-1.80,-0.03,-4.00,1.00,-8.00,-7004.00,67.89350,21.10510,339.96000,2245854.04,866832.63,5886947.99
13891.665800,9.71,-1.81,-0.03,-4.00,-2.00,2.00,-7004.00,67.89350,21.10510,339.96000,2245854.04,866832.63,5886947.99
13891.789100,9.71,-1.82,-0.02,-2.00,-4.00,-1.00,-7004.00,67.89350,21.10510,339.96000,2245854.04,866832.63,5886947.99
13891.865800,9.71,-1.81,-0.02,-1.00,-0.00,0.00,-7004.00,67.89350,21.10510,339.96000,2245854.04,866832.63,5886947.99
13891.965800,9.72,-1.80,-0.03,-2.00,-0.00,2.00,-7004.00,67.89350,21.10510,339.96000,2245854.04,866832.63,5886947.99
13892.065900,9.71,-1.79,-0.02,-6.00,2.00,0.00,-7004.00,67.89350,21.10510,339.96000,2245854.04,866832.63,5886947.99
13892.165800,9.71,-1.81,-0.02,-2.00,5.00,2.00,-7004.00,67.89350,21.10510,339.96000,2245854.04,866832.63,5886947.99
13892.265800,9.71,-1.82,-0.02,-7.00,1.00,-5.00,-7004.00,67.89350,21.10510,339.96000,2245854.04,866832.63,5886947.99
13892.365800,9.71,-1.80,-0.03,-5.00,-0.00,2.00,-7004.00,67.89350,21.10510,339.96000,2245854.04,866832.63,5886947.99
13892.465800,9.73,-1.80,-0.02,-4.00,-4.00,2.00,-7004.00,67.89350,21.10510,339.96000,2245854.04,866832.63,5886947.99
13892.565800,9.72,-1.81,-0.02,-2.00,-0.00,-2.00,-7004.00,67.89350,21.10510,339.96000,2245854.04,866832.63,5886947.99
13892.665600,9.73,-1.81,-0.02,1.00,-0.00,-2.00,-7004.00,67.89350,21.10510,339.96000,2245854.04,866832.63,5886947.99
13892.765800,9.72,-1.82,-0.02,-1.00,-0.00,0.00,-7004.00,67.89350,21.10510,339.96000,2245854.04,866832.63,5886947.99
13892.888900,9.73,-1.81,-0.01,-5.00,-1.00,0.00,-7004.00,67.89350,21.10510,339.96000,2245854.04,866832.63,5886947.99
13892.965800,9.72,-1.81,-0.02,0.00,-4.00,1.00,-7004.00,67.89350,21.10510,346.76000,2245854.04,866832.63,5886947.99
13893.065800,9.72,-1.80,-0.03,7.00,-5.00,5.00,-7004.00,67.89350,21.10510,346.76000,2245854.04,866832.63,5886947.99
13893.165800,9.71,-1.81,-0.02,3.00,-2.00,-2.00,-7004.00,67.89350,21.10510,346.76000,2245854.04,866832.63,5886947.99
13893.262800,9.71,-1.81,-0.02,-1.00,-1.00,0.00,-7004.00,67.89350,21.10510,346.76000,2245856.43,866833.55,5886954.29
13893.362800,9.71,-1.82,-0.02,0.00,-1.00,8.00,-7004.00,67.89350,21.10510,346.76000,2245856.43,866833.55,5886954.29
13893.462800,9.71,-1.80,-0.01,-6.00,-0.00,0.00,-7004.00,67.89350,21.10510,346.76000,2245856.43,866833.55,5886954.29
13893.562800,9.71,-1.82,-0.02,-3.00,-0.00,0.00,-7004.00,67.89350,21.10510,346.76000,2245856.43,866833.55,5886954.29
13893.662800,9.72,-1.81,-0.03,-2.00,-6.00,6.00,-7004.00,67.89350,21.10510,346.76000,2245856.43,866833.55,5886954.29
13893.762800,9.73,-1.82,-0.02,0.00,-5.00,6.00,-7004.00,67.89350,21.10510,346.76000,2245856.43,866833.55,5886954.29
13893.862800,9.73,-1.81,-0.01,3.00,3.00,-9.00,-7004.00,67.89350,21.10510,346.76000,2245856.43,866833.55,5886954.29
13893.967300,9.72,-1.80,-0.03,4.00,-0.00,1.00,100163.00,67.89350,21.10510,346.76000,2245856.43,866833.55,5886954.29
13894.062800,9.71,-1.79,-0.02,1.00,1.00,0.00,100163.00,67.89350,21.10510,346.76000,2245856.43,866833.55,5886954.29
13894.162800,9.72,-1.81,-0.02,4.00,2.00,6.00,100163.00,67.89350,21.10510,346.76000,2245856.43,866833.55,5886954.29
13894.265600,9.72,-1.81,-0.02,-6.00,-0.00,-3.00,100163.00,67.89350,21.10510,346.76000,2245856.43,866833.55,5886954.29
13894.365700,9.72,-1.81,-0.02,3.00,-4.00,6.00,100163.00,67.89350,21.10510,346.76000,2245856.43,866833.55,5886954.29
13894.465800,9.73,-1.82,-0.03,-1.00,-4.00,-6.00,100163.00,67.89350,21.10510,346.76000,2245856.43,866833.55,5886954.29
13894.565800,9.71,-1.81,-0.02,-2.00,-0.00,-1.00,100163.00,67.89350,21.10510,346.76000,2245856.43,866833.55,5886954.29
13894.665800,9.72,-1.81,-0.03,5.00,-0.00,-2.00,100163.00,67.89350,21.10510,346.76000,2245856.43,866833.55,5886954.29
13894.765800,9.72,-1.82,-0.02,3.00,-0.00,0.00,100163.00,67.89350,21.10510,346.76000,2245856.43,866833.55,5886954.29
13894.865800,9.71,-1.81,-0.02,5.00,-0.00,-2.00,100163.00,67.89350,21.10510,348.45000,2245856.43,866833.55,5886954.29
13894.965800,9.73,-1.80,-0.02,-9.00,2.00,0.00,100163.00,67.89350,21.10510,348.45000,2245856.43,866833.55,5886954.29
13895.066300,9.73,-1.81,-0.02,0.00,4.00,0.00,100163.00,67.89350,21.10510,348.45000,2245856.43,866833.55,5886954.29
13895.165900,9.72,-1.80,-0.03,0.00,2.00,0.00,100163.00,67.89350,21.10510,348.45000,2245856.43,866833.55,5886954.29
13895.264800,9.72,-1.82,-0.02,-5.00,1.00,1.00,100163.00,67.89340,21.10510,348.45000,2245866.66,866837.50,5886951.66
13895.364700,9.71,-1.81,-0.02,6.00,-5.00,-5.00,100163.00,67.89340,21.10510,348.45000,2245866.66,866837.50,5886951.66
13895.464800,9.72,-1.81,-0.02,0.00,6.00,5.00,100163.00,67.89340,21.10510,348.45000,2245866.66,866837.50,5886951.66
13895.564800,9.73,-1.82,-0.02,0.00,9.00,2.00,100163.00,67.89340,21.10510,348.45000,2245866.66,866837.50,5886951.66
13895.664800,9.74,-1.81,-0.02,-1.00,-6.00,0.00,100163.00,67.89340,21.10510,348.45000,2245866.66,866837.50,5886951.66
13895.764900,9.71,-1.80,-0.02,-6.00,2.00,0.00,100163.00,67.89340,21.10510,348.45000,2245866.66,866837.50,5886951.66
13895.864800,9.72,-1.81,-0.03,-5.00,2.00,0.00,100163.00,67.89340,21.10510,348.45000,2245866.66,866837.50,5886951.66
13895.964800,9.72,-1.81,-0.03,-4.00,-1.00,0.00,100163.00,67.89340,21.10510,348.45000,2245866.66,866837.50,5886951.66
13896.064800,9.73,-1.81,-0.04,-2.00,-5.00,1.00,100163.00,67.89340,21.10510,348.45000,2245866.66,866837.50,5886951.66
13896.164900,9.72,-1.80,-0.01,-2.00,-0.00,1.00,100163.00,67.89340,21.10510,348.45000,2245866.66,866837.50,5886951.66
13896.261800,9.71,-1.82,0.00,0.00,-0.00,-5.00,100163.00,67.89340,21.10510,348.45000,2245866.66,866837.50,5886951.66
13896.361900,9.71,-1.81,-0.02,-3.00,5.00,0.00,100163.00,67.89340,21.10510,348.45000,2245866.66,866837.50,5886951.66
13896.461800,9.72,-1.82,-0.02,0.00,-2.00,6.00,100163.00,67.89340,21.10510,348.45000,2245866.66,866837.50,5886951.66
13896.561800,9.70,-1.80,-0.02,-3.00,3.00,-7.00,100163.00,67.89340,21.10510,348.45000,2245866.66,866837.50,5886951.66
13896.661700,9.73,-1.80,-0.02,-8.00,1.00,2.00,100163.00,67.89340,21.10510,348.45000,2245866.66,866837.50,5886951.66
13896.761800,9.71,-1.82,-0.02,1.00,-0.00,5.00,100163.00,67.89340,21.10510,348.45000,2245866.66,866837.50,5886951.66
13896.861800,9.72,-1.81,-0.02,0.00,-2.00,-2.00,100163.00,67.89340,21.10510,343.34000,2245866.66,866837.50,5886951.66
13896.961800,9.72,-1.80,-0.02,2.00,-2.00,-4.00,100169.00,67.89340,21.10510,343.34000,2245866.66,866837.50,5886951.66
13897.061900,9.71,-1.82,-0.02,-3.00,4.00,0.00,100169.00,67.89340,21.10510,343.34000,2245866.66,866837.50,5886951.66
13897.161900,9.72,-1.81,-0.02,-2.00,-2.00,11.00,100169.00,67.89340,21.10510,343.34000,2245866.66,866837.50,5886951.66
13897.239300,9.71,-1.81,-0.02,0.00,-8.00,0.00,100169.00,67.89340,21.10510,343.34000,2245864.87,866836.81,5886946.92
13897.339400,9.71,-1.81,-0.02,-6.00,-0.00,-3.00,100169.00,67.89340,21.10510,343.34000,2245864.87,866836.81,5886946.92
13897.439400,9.72,-1.80,-0.02,2.00,1.00,-4.00,100169.00,67.89340,21.10510,343.34000,2245864.87,866836.81,5886946.92
13897.539400,9.72,-1.81,-0.02,-1.00,-2.00,1.00,100169.00,67.89340,21.10510,343.34000,2245864.87,866836.81,5886946.92
13897.639400,9.71,-1.82,-0.03,3.00,-5.00,-3.00,100169.00,67.89340,21.10510,343.34000,2245864.87,866836.81,5886946.92
13897.739400,9.73,-1.83,-0.02,-2.00,-1.00,-4.00,100169.00,67.89340,21.10510,343.34000,2245864.87,866836.81,5886946.92
13897.839400,9.72,-1.80,-0.01,0.00,2.00,0.00,100169.00,67.89340,21.10510,343.34000,2245864.87,866836.81,5886946.92
13897.939300,9.71,-1.80,-0.02,4.00,-1.00,-1.00,100169.00,67.89340,21.10510,343.34000,2245864.87,866836.81,5886946.92
13898.039400,9.70,-1.82,-0.02,4.00,-0.00,0.00,100169.00,67.89340,21.10510,343.34000,2245864.87,866836.81,5886946.92
13898.139400,9.71,-1.82,-0.02,2.00,-0.00,2.00,100169.00,67.89340,21.10510,343.34000,2245864.87,866836.81,5886946.92
13898.594700,9.72,-1.81,-0.01,3.00,-0.00,0.00,100169.00,67.89340,21.10510,343.34000,2245864.87,866836.81,5886946.92
13898.627400,9.71,-1.80,-0.03,-6.00,-0.00,-3.00,100169.00,67.89340,21.10510,343.34000,2245864.87,866836.81,5886946.92
13898.660000,9.70,-1.80,-0.02,4.00,-5.00,8.00,100169.00,67.89340,21.10510,343.34000,2245864.87,866836.81,5886946.92
13898.692500,9.72,-1.80,-0.03,0.00,-0.00,1.00,100169.00,67.89340,21.10510,343.34000,2245864.87,866836.81,5886946.92
13898.725000,9.72,-1.82,-0.02,-2.00,-2.00,0.00,100169.00,67.89340,21.10510,343.34000,2245864.87,866836.81,5886946.92
13898.765800,9.72,-1.81,-0.02,-1.00,-5.00,-3.00,100169.00,67.89340,21.10510,343.34000,2245864.87,866836.81,5886946.92
13898.865800,9.71,-1.82,-0.04,-5.00,-0.00,-5.00,100169.00,67.89340,21.10510,337.67000,2245864.87,866836.81,5886946.92
13898.965700,9.72,-1.81,-0.01,0.00,-1.00,-1.00,100169.00,67.89340,21.10510,337.67000,2245864.87,866836.81,5886946.92
13899.065800,9.71,-1.80,-0.02,0.00,-2.00,5.00,100169.00,67.89340,21.10510,337.67000,2245864.87,866836.81,5886946.92
13899.165800,9.73,-1.79,-0.02,1.00,1.00,-1.00,100169.00,67.89340,21.10510,337.67000,2245864.87,866836.81,5886946.92
13899.261800,9.72,-1.82,-0.03,1.00,-0.00,-6.00,100169.00,67.89340,21.10510,337.67000,2245862.88,866836.04,5886941.67
13899.385300,9.71,-1.80,-0.02,-1.00,5.00,-7.00,100169.00,67.89340,21.10510,337.67000,2245862.88,866836.04,5886941.67
13899.461800,9.73,-1.82,-0.02,2.00,-1.00,-3.00,100169.00,67.89340,21.10510,337.67000,2245862.88,866836.04,5886941.67
13899.561800,9.73,-1.82,-0.02,0.00,-2.00,3.00,100169.00,67.89340,21.10510,337.67000,2245862.88,866836.04,5886941.67
13899.661800,9.70,-1.82,-0.01,5.00,1.00,0.00,100169.00,67.89340,21.10510,337.67000,2245862.88,866836.04,5886941.67
13899.761600,9.72,-1.80,-0.01,3.00,-3.00,0.00,100169.00,67.89340,21.10510,337.67000,2245862.88,866836.04,5886941.67
13899.861800,9.71,-1.82,-0.01,-4.00,5.00,2.00,100169.00,67.89340,21.10510,337.67000,2245862.88,866836.04,5886941.67
13899.961800,9.72,-1.81,-0.02,-1.00,6.00,-6.00,-357847.00,67.89340,21.10510,337.67000,2245862.88,866836.04,5886941.67
13900.061800,9.71,-1.80,-0.03,-2.00,10.00,1.00,-357847.00,67.89340,21.10510,337.67000,2245862.88,866836.04,5886941.67
13900.161800,9.71,-1.80,-0.02,5.00,-0.00,6.00,-357847.00,67.89340,21.10510,337.67000,2245862.88,866836.04,5886941.67
13900.264800,9.71,-1.80,-0.03,0.00,1.00,-6.00,-357847.00,67.89340,21.10510,337.67000,2245862.88,866836.04,5886941.67
13900.364800,9.73,-1.80,-0.03,-3.00,1.00,-5.00,-357847.00,67.89340,21.10510,337.67000,2245862.88,866836.04,5886941.67
13900.482700,9.71,-1.80,-0.01,0.00,-0.00,-3.00,-357847.00,67.89340,21.10510,337.67000,2245862.88,866836.04,5886941.67
13900.564800,9.72,-1.81,-0.04,0.00,-0.00,-3.00,-357847.00,67.89340,21.10510,337.67000,2245862.88,866836.04,5886941.67
13900.664700,9.71,-1.80,-0.01,4.00,5.00,-2.00,-357847.00,67.89340,21.10510,337.67000,2245862.88,866836.04,5886941.67
13900.764800,9.72,-1.82,-0.02,8.00,2.00,0.00,-357847.00,67.89340,21.10510,337.67000,2245862.88,866836.04,5886941.67
13900.864700,9.73,-1.82,-0.02,0.00,-4.00,4.00,-357847.00,67.89340,21.10510,335.35000,2245862.88,866836.04,5886941.67
13900.964800,9.72,-1.81,-0.03,1.00,1.00,4.00,-357847.00,67.89340,21.10510,335.35000,2245862.88,866836.04,5886941.67
13901.064800,9.71,-1.81,-0.02,4.00,-1.00,-3.00,-357847.00,67.89340,21.10510,335.35000,2245862.88,866836.04,5886941.67
13901.164800,9.73,-1.81,-0.02,2.00,-4.00,7.00,-357847.00,67.89340,21.10510,335.35000,2245862.88,866836.04,5886941.67
13901.264700,9.72,-1.80,-0.01,1.00,-4.00,0.00,-357847.00,67.89340,21.10510,335.35000,2245862.06,866835.73,5886939.52
13901.364800,9.71,-1.80,-0.02,0.00,1.00,3.00,-357847.00,67.89340,21.10510,335.35000,2245862.06,866835.73,5886939.52
13901.464800,9.72,-1.81,-0.02,-3.00,-3.00,-5.00,-357847.00,67.89340,21.10510,335.35000,2245862.06,866835.73,5886939.52
13901.564700,9.72,-1.81,-0.03,1.00,4.00,-6.00,-357847.00,67.89340,21.10510,335.35000,2245862.06,866835.73,5886939.52
13901.664600,9.71,-1.81,-0.02,-2.00,-0.00,1.00,-357847.00,67.89340,21.10510,335.35000,2245862.06,866835.73,5886939.52
13901.764800,9.72,-1.80,-0.02,10.00,2.00,1.00,-357847.00,67.89340,21.10510,335.35000,2245862.06,866835.73,5886939.52
13901.864700,9.71,-1.80,-0.02,2.00,-0.00,-2.00,-357847.00,67.89340,21.10510,335.35000,2245862.06,866835.73,5886939.52
13901.964800,9.72,-1.83,-0.02,12.00,-1.00,0.00,-357847.00,67.89340,21.10510,335.35000,2245862.06,866835.73,5886939.52
13902.064800,9.71,-1.79,-0.02,-9.00,4.00,-2.00,-357847.00,67.89340,21.10510,335.35000,2245862.06,866835.73,5886939.52
13902.164800,9.72,-1.82,-0.02,1.00,-4.00,0.00,-357847.00,67.89340,21.10510,335.35000,2245862.06,866835.73,5886939.52
13902.261700,9.71,-1.80,-0.01,0.00,-0.00,1.00,-357847.00,67.89340,21.10510,335.35000,2245862.06,866835.73,5886939.52
13902.361800,9.72,-1.82,-0.01,-4.00,-1.00,4.00,-357847.00,67.89340,21.10510,335.35000,2245862.06,866835.73,5886939.52
13902.461700,9.71,-1.80,-0.03,-1.00,-0.00,3.00,-357847.00,67.89340,21.10510,335.35000,2245862.06,866835.73,5886939.52
13902.561700,9.70,-1.81,-0.02,1.00,-5.00,3.00,-357847.00,67.89340,21.10510,335.35000,2245862.06,866835.73,5886939.52
13902.661900,9.71,-1.81,-0.02,3.00,5.00,4.00,-357847.00,67.89340,21.10510,335.35000,2245862.06,866835.73,5886939.52
13902.761800,9.71,-1.80,-0.02,-5.00,-3.00,0.00,-357847.00,67.89340,21.10510,335.35000,2245862.06,866835.73,5886939.52
13902.861700,9.71,-1.82,-0.02,-5.00,-3.00,3.00,-357847.00,67.89340,21.10510,331.03000,2245862.06,866835.73,5886939.52
13902.961700,9.71,-1.81,-0.01,-2.00,-3.00,-1.00,100168.00,67.89340,21.10510,331.03000,2245862.06,866835.73,5886939.52
13903.061800,9.71,-1.81,-0.02,2.00,-4.00,3.00,100168.00,67.89340,21.10510,331.03000,2245862.06,866835.73,5886939.52
13903.161800,9.72,-1.80,-0.02,0.00,7.00,4.00,100168.00,67.89340,21.10510,331.03000,2245862.06,866835.73,5886939.52
13903.265800,9.72,-1.81,-0.02,9.00,-0.00,-1.00,100168.00,67.89350,21.10510,331.03000,2245850.90,866831.42,5886939.71
13903.365700,9.71,-1.82,-0.03,4.00,1.00,-2.00,100168.00,67.89350,21.10510,331.03000,2245850.90,866831.42,5886939.71
13903.465800,9.71,-1.82,-0.02,-3.00,-0.00,0.00,100168.00,67.89350,21.10510,331.03000,2245850.90,866831.42,5886939.71
13903.565800,9.72,-1.81,-0.02,-1.00,-4.00,4.00,100168.00,67.89350,21.10510,331.03000,2245850.90,866831.42,5886939.71
13903.665800,9.73,-1.81,-0.02,3.00,9.00,-9.00,100168.00,67.89350,21.10510,331.03000,2245850.90,866831.42,5886939.71
13903.765800,9.72,-1.81,-0.02,2.00,2.00,1.00,100168.00,67.89350,21.10510,331.03000,2245850.90,866831.42,5886939.71
13903.865700,9.73,-1.82,-0.03,0.00,-0.00,0.00,100168.00,67.89350,21.10510,331.03000,2245850.90,866831.42,5886939.71
13903.965800,9.71,-1.80,-0.02,6.00,-0.00,-4.00,100168.00,67.89350,21.10510,331.03000,2245850.90,866831.42,5886939.71
13904.065800,9.72,-1.82,-0.01,4.00,-2.00,-7.00,100168.00,67.89350,21.10510,331.03000,2245850.90,866831.42,5886939.71
13904.165800,9.71,-1.80,-0.02,2.00,3.00,3.00,100168.00,67.89350,21.10510,331.03000,2245850.90,866831.42,5886939.71
13904.265800,9.72,-1.81,-0.01,3.00,-0.00,3.00,100168.00,67.89350,21.10510,331.03000,2245850.90,866831.42,5886939.71
13904.365800,9.73,-1.81,-0.03,-5.00,3.00,0.00,100168.00,67.89350,21.10510,331.03000,2245850.90,866831.42,5886939.71
13904.465800,9.71,-1.81,-0.02,9.00,2.00,-2.00,100168.00,67.89350,21.10510,331.03000,2245850.90,866831.42,5886939.71
13904.565700,9.72,-1.81,-0.02,0.00,-5.00,1.00,100168.00,67.89350,21.10510,331.03000,2245850.90,866831.42,5886939.71
13904.665700,9.71,-1.81,-0.01,0.00,-0.00,2.00,100168.00,67.89350,21.10510,331.03000,2245850.90,866831.42,5886939.71
13904.765800,9.71,-1.81,-0.03,5.00,-1.00,4.00,100168.00,67.89350,21.10510,331.03000,2245850.90,866831.42,5886939.71
13904.865700,9.72,-1.83,-0.02,1.00,3.00,-3.00,100168.00,67.89350,21.10510,329.42000,2245850.90,866831.42,5886939.71
13904.965800,9.72,-1.80,-0.02,2.00,5.00,1.00,100168.00,67.89350,21.10510,329.42000,2245850.90,866831.42,5886939.71
13905.065800,9.72,-1.81,-0.03,0.00,-2.00,2.00,100168.00,67.89350,21.10510,329.42000,2245850.90,866831.42,5886939.71
13905.165800,9.72,-1.81,-0.02,4.00,-4.00,2.00,100168.00,67.89350,21.10510,329.42000,2245850.90,866831.42,5886939.71
13905.262700,9.73,-1.82,-0.01,1.00,-0.00,3.00,100168.00,67.89350,21.10510,329.42000,2245850.34,866831.20,5886938.22
13905.362700,9.71,-1.80,-0.01,5.00,1.00,-4.00,100168.00,67.89350,21.10510,329.42000,2245850.34,866831.20,5886938.22
13905.462700,9.73,-1.82,-0.02,0.00,-2.00,1.00,100168.00,67.89350,21.10510,329.42000,2245850.34,866831.20,5886938.22
13905.562700,9.73,-1.81,-0.03,-3.00,-0.00,-2.00,100168.00,67.89350,21.10510,329.42000,2245850.34,866831.20,5886938.22
13905.662700,9.73,-1.82,-0.03,0.00,-0.00,-4.00,100168.00,67.89350,21.10510,329.42000,2245850.34,866831.20,5886938.22
13905.762700,9.72,-1.80,-0.02,4.00,-3.00,-2.00,100168.00,67.89350,21.10510,329.42000,2245850.34,866831.20,5886938.22
13905.888200,9.70,-1.81,-0.02,-3.00,5.00,-1.00,100168.00,67.89350,21.10510,329.42000,2245850.34,866831.20,5886938.22
13905.962700,9.71,-1.81,-0.03,-1.00,-4.00,3.00,100168.00,67.89350,21.10510,329.42000,2245850.34,866831.20,5886938.22
13906.062500,9.71,-1.80,-0.03,5.00,-0.00,0.00,100168.00,67.89350,21.10510,329.42000,2245850.34,866831.20,5886938.22
13906.162700,9.73,-1.81,-0.01,2.00,6.00,-2.00,100168.00,67.89350,21.10510,329.42000,2245850.34,866831.20,5886938.22
13906.265700,9.72,-1.80,-0.03,3.00,3.00,-4.00,100168.00,67.89350,21.10510,329.42000,2245850.34,866831.20,5886938.22
13906.365800,9.71,-1.82,-0.04,-1.00,1.00,3.00,100168.00,67.89350,21.10510,329.42000,2245850.34,866831.20,5886938.22
13906.465700,9.72,-1.81,-0.03,-1.00,-4.00,-5.00,100168.00,67.89350,21.10510,329.42000,2245850.34,866831.20,5886938.22
13906.565700,9.73,-1.80,-0.02,2.00,2.00,0.00,100168.00,67.89350,21.10510,329.42000,2245850.34,866831.20,5886938.22
13906.665600,9.72,-1.81,-0.02,0.00,6.00,2.00,100168.00,67.89350,21.10510,329.42000,2245850.34,866831.20,5886938.22
13906.765800,9.72,-1.80,-0.03,-3.00,-0.00,0.00,100168.00,67.89350,21.10510,329.42000,2245850.34,866831.20,5886938.22
13906.865700,9.72,-1.81,-0.01,10.00,-3.00,10.00,100168.00,67.89350,21.10510,328.00000,2245850.34,866831.20,5886938.22
13906.983600,9.71,-1.82,-0.01,-5.00,3.00,1.00,100168.00,67.89350,21.10510,328.00000,2245850.34,866831.20,5886938.22
13907.065800,9.72,-1.82,-0.02,1.00,-0.00,0.00,100168.00,67.89350,21.10510,328.00000,2245850.34,866831.20,5886938.22
13907.165800,9.72,-1.80,-0.02,3.00,2.00,0.00,100168.00,67.89350,21.10510,328.00000,2245850.34,866831.20,5886938.22
13907.265600,9.72,-1.81,-0.01,0.00,-2.00,0.00,100168.00,67.89350,21.10510,328.00000,2245849.84,866831.01,5886936.91
13907.365800,9.72,-1.80,-0.02,-5.00,1.00,0.00,100168.00,67.89350,21.10510,328.00000,2245849.84,866831.01,5886936.91
13907.465700,9.72,-1.81,-0.02,2.00,2.00,2.00,100168.00,67.89350,21.10510,328.00000,2245849.84,866831.01,5886936.91
13907.565700,9.72,-1.80,-0.04,-2.00,-1.00,0.00,100168.00,67.89350,21.10510,328.00000,2245849.84,866831.01,5886936.91
13907.665600,9.72,-1.81,-0.02,5.00,-5.00,1.00,100168.00,67.89350,21.10510,328.00000,2245849.84,866831.01,5886936.91
13907.765800,9.72,-1.81,-0.03,1.00,4.00,1.00,100168.00,67.89350,21.10510,328.00000,2245849.84,866831.01,5886936.91
13907.865700,9.71,-1.80,-0.03,2.00,-0.00,2.00,100168.00,67.89350,21.10510,328.00000,2245849.84,866831.01,5886936.91
13907.965600,9.71,-1.80,-0.03,2.00,1.00,1.00,100168.00,67.89350,21.10510,328.00000,2245849.84,866831.01,5886936.91
13908.098000,9.73,-1.82,-0.02,-2.00,-1.00,-3.00,100168.00,67.89350,21.10510,328.00000,2245849.84,866831.01,5886936.91
13908.165800,9.72,-1.82,-0.02,4.00,-0.00,-1.00,100168.00,67.89350,21.10510,328.00000,2245849.84,866831.01,5886936.91
13908.263800,9.71,-1.81,-0.02,2.00,4.00,-3.00,100168.00,67.89350,21.10510,328.00000,2245849.84,866831.01,5886936.91
13908.363900,9.72,-1.81,-0.03,-2.00,2.00,-4.00,100168.00,67.89350,21.10510,328.00000,2245849.84,866831.01,5886936.91
13908.463900,9.73,-1.81,-0.02,0.00,-3.00,0.00,100168.00,67.89350,21.10510,328.00000,2245849.84,866831.01,5886936.91
13908.563800,9.71,-1.81,-0.03,-4.00,7.00,2.00,100168.00,67.89350,21.10510,328.00000,2245849.84,866831.01,5886936.91
13908.663900,9.72,-1.82,-0.01,0.00,-0.00,-4.00,100168.00,67.89350,21.10510,328.00000,2245849.84,866831.01,5886936.91
13908.763700,9.72,-1.81,-0.02,-3.00,-3.00,-2.00,100168.00,67.89350,21.10510,328.00000,2245849.84,866831.01,5886936.91
13908.863800,9.71,-1.81,-0.02,1.00,-0.00,0.00,100168.00,67.89350,21.10510,320.78000,2245849.84,866831.01,5886936.91
13908.963900,9.72,-1.80,-0.02,0.00,-1.00,-2.00,100168.00,67.89350,21.10510,320.78000,2245849.84,866831.01,5886936.91
13909.063900,9.71,-1.80,-0.02,-2.00,-0.00,0.00,100168.00,67.89350,21.10510,320.78000,2245849.84,866831.01,5886936.91
13909.224300,9.74,-1.80,-0.02,4.00,-4.00,1.00,100168.00,67.89350,21.10510,320.78000,2245849.84,866831.01,5886936.91
13909.256800,9.72,-1.80,-0.02,2.00,-0.00,-3.00,100168.00,67.89350,21.10510,320.78000,2245849.84,866831.01,5886936.91
13909.289300,9.71,-1.81,-0.02,-1.00,-0.00,1.00,100168.00,67.89350,21.10510,320.78000,2245849.84,866831.01,5886936.91
13909.322300,9.73,-1.81,-0.01,-4.00,5.00,1.00,100168.00,67.89350,21.10510,320.78000,2245849.84,866831.01,5886936.91
13909.354800,9.71,-1.81,-0.02,3.00,4.00,0.00,100168.00,67.89350,21.10510,320.78000,2245849.84,866831.01,5886936.91
13909.420800,9.71,-1.81,-0.02,-1.00,-3.00,-1.00,100168.00,67.89340,21.10520,320.78000,2245855.43,866837.67,5886926.02
13909.520800,9.72,-1.82,-0.02,2.00,1.00,0.00,100168.00,67.89340,21.10520,320.78000,2245855.43,866837.67,5886926.02
13909.620700,9.72,-1.81,-0.01,2.00,3.00,-5.00,100168.00,67.89340,21.10520,320.78000,2245855.43,866837.67,5886926.02
13909.720800,9.72,-1.81,-0.02,-5.00,-2.00,0.00,100168.00,67.89340,21.10520,320.78000,2245855.43,866837.67,5886926.02
13909.820900,9.72,-1.82,-0.03,2.00,1.00,2.00,100168.00,67.89340,21.10520,320.78000,2245855.43,866837.67,5886926.02
13909.920900,9.71,-1.81,-0.01,2.00,3.00,0.00,100168.00,67.89340,21.10520,320.78000,2245855.43,866837.67,5886926.02
13910.265700,9.72,-1.81,-0.02,5.00,3.00,-1.00,100168.00,67.89340,21.10520,320.78000,2245855.43,866837.67,5886926.02
13910.365800,9.71,-1.81,-0.02,4.00,-0.00,0.00,100168.00,67.89340,21.10520,320.78000,2245855.43,866837.67,5886926.02
13910.465700,9.71,-1.81,-0.01,1.00,-2.00,0.00,100168.00,67.89340,21.10520,320.78000,2245855.43,866837.67,5886926.02
13910.565700,9.71,-1.79,-0.02,-2.00,-5.00,-4.00,100168.00,67.89340,21.10520,320.78000,2245855.43,866837.67,5886926.02
13910.665700,9.72,-1.81,-0.03,-3.00,-8.00,-1.00,100168.00,67.89340,21.10520,320.78000,2245855.43,866837.67,5886926.02
13910.765700,9.72,-1.81,-0.02,2.00,-4.00,-1.00,100168.00,67.89340,21.10520,320.78000,2245855.43,866837.67,5886926.02
13910.865700,9.72,-1.82,0.00,-2.00,3.00,5.00,100168.00,67.89340,21.10520,345.44000,2245855.43,866837.67,5886926.02
13910.965700,9.71,-1.83,-0.02,-6.00,-0.00,1.00,100168.00,67.89340,21.10520,345.44000,2245855.43,866837.67,5886926.02
13911.065800,9.72,-1.81,-0.02,-7.00,1.00,0.00,100168.00,67.89340,21.10520,345.44000,2245855.43,866837.67,5886926.02
13911.165800,9.71,-1.82,-0.03,4.00,-3.00,-3.00,100168.00,67.89340,21.10520,345.44000,2245855.43,866837.67,5886926.02
13911.262600,9.72,-1.81,-0.02,1.00,-4.00,-3.00,100168.00,67.89340,21.10520,345.44000,2245864.09,866841.01,5886948.87
13911.362700,9.73,-1.81,-0.01,3.00,5.00,-1.00,100168.00,67.89340,21.10520,345.44000,2245864.09,866841.01,5886948.87
13911.462600,9.73,-1.81,-0.02,0.00,-1.00,6.00,100168.00,67.89340,21.10520,345.44000,2245864.09,866841.01,5886948.87
13911.562700,9.72,-1.81,-0.02,-4.00,-0.00,6.00,100168.00,67.89340,21.10520,345.44000,2245864.09,866841.01,5886948.87
13911.662600,9.72,-1.82,-0.02,4.00,-2.00,8.00,100168.00,67.89340,21.10520,345.44000,2245864.09,866841.01,5886948.87
13911.762700,9.72,-1.82,-0.02,2.00,-0.00,-4.00,100168.00,67.89340,21.10520,345.44000,2245864.09,866841.01,5886948.87
13911.862700,9.72,-1.80,-0.02,0.00,-5.00,1.00,100168.00,67.89340,21.10520,345.44000,2245864.09,866841.01,5886948.87
13911.962600,9.72,-1.81,-0.02,5.00,-1.00,0.00,100165.00,67.89340,21.10520,345.44000,2245864.09,866841.01,5886948.87
13912.062700,9.71,-1.80,-0.01,-6.00,-1.00,-1.00,100165.00,67.89340,21.10520,345.44000,2245864.09,866841.01,5886948.87
13912.162700,9.71,-1.80,-0.02,0.00,-1.00,-10.00,100165.00,67.89340,21.10520,345.44000,2245864.09,866841.01,5886948.87
13912.265700,9.72,-1.80,-0.02,0.00,-0.00,0.00,100165.00,67.89340,21.10520,345.44000,2245864.09,866841.01,5886948.87
13912.365800,9.72,-1.82,-0.03,2.00,4.00,2.00,100165.00,67.89340,21.10520,345.44000,2245864.09,866841.01,5886948.87
13912.465700,9.72,-1.80,-0.02,0.00,-2.00,6.00,100165.00,67.89340,21.10520,345.44000,2245864.09,866841.01,5886948.87
13912.565700,9.72,-1.82,-0.02,1.00,-2.00,1.00,100165.00,67.89340,21.10520,345.44000,2245864.09,866841.01,5886948.87
13912.665600,9.71,-1.81,-0.01,6.00,-0.00,3.00,100165.00,67.89340,21.10520,345.44000,2245864.09,866841.01,5886948.87
13912.765800,9.73,-1.81,-0.02,13.00,-3.00,-5.00,100165.00,67.89340,21.10520,345.44000,2245864.09,866841.01,5886948.87
13912.865700,9.72,-1.80,-0.03,0.00,6.00,3.00,100165.00,67.89340,21.10520,354.62000,2245864.09,866841.01,5886948.87
13912.965700,9.71,-1.82,-0.02,-2.00,-0.00,5.00,100165.00,67.89340,21.10520,354.62000,2245864.09,866841.01,5886948.87
13913.065800,9.73,-1.80,-0.03,0.00,-1.00,5.00,100165.00,67.89340,21.10520,354.62000,2245864.09,866841.01,5886948.87
13913.165800,9.72,-1.81,-0.03,1.00,5.00,4.00,100165.00,67.89340,21.10520,354.62000,2245864.09,866841.01,5886948.87
13913.265700,9.72,-1.83,-0.02,2.00,-0.00,-3.00,100165.00,67.89350,21.10520,354.62000,2245857.67,866838.54,5886961.57
13913.365700,9.71,-1.82,-0.02,0.00,1.00,-3.00,100165.00,67.89350,21.10520,354.62000,2245857.67,866838.54,5886961.57
13913.493200,9.71,-1.82,-0.02,-6.00,-3.00,-3.00,100165.00,67.89350,21.10520,354.62000,2245857.67,866838.54,5886961.57
13913.565700,9.72,-1.82,-0.03,0.00,-1.00,-4.00,100165.00,67.89350,21.10520,354.62000,2245857.67,866838.54,5886961.57
13913.665700,9.72,-1.82,-0.01,-2.00,-2.00,4.00,100165.00,67.89350,21.10520,354.62000,2245857.67,866838.54,5886961.57
13913.765700,9.72,-1.81,-0.02,1.00,4.00,-3.00,100165.00,67.89350,21.10520,354.62000,2245857.67,866838.54,5886961.57
13913.865500,9.73,-1.82,-0.03,-2.00,1.00,4.00,100165.00,67.89350,21.10520,354.62000,2245857.67,866838.54,5886961.57
13913.965700,9.71,-1.80,-0.02,0.00,-0.00,-4.00,100165.00,67.89350,21.10520,354.62000,2245857.67,866838.54,5886961.57
13914.065700,9.72,-1.80,-0.03,1.00,-2.00,-1.00,100165.00,67.89350,21.10520,354.62000,2245857.67,866838.54,5886961.57
13914.165800,9.72,-1.82,-0.02,9.00,1.00,-1.00,100165.00,67.89350,21.10520,354.62000,2245857.67,866838.54,5886961.57
13914.262700,9.71,-1.79,-0.03,0.00,-0.00,0.00,100165.00,67.89350,21.10520,354.62000,2245857.67,866838.54,5886961.57
13914.362700,9.72,-1.81,-0.02,-2.00,-0.00,0.00,100165.00,67.89350,21.10520,354.62000,2245857.67,866838.54,5886961.57
13914.462700,9.73,-1.82,-0.03,0.00,-0.00,4.00,100165.00,67.89350,21.10520,354.62000,2245857.67,866838.54,5886961.57
13914.581600,9.73,-1.81,-0.02,-2.00,-2.00,-6.00,100165.00,67.89350,21.10520,354.62000,2245857.67,866838.54,5886961.57
13914.662700,9.73,-1.82,-0.01,0.00,2.00,-8.00,100165.00,67.89350,21.10520,354.62000,2245857.67,866838.54,5886961.57
13914.762700,9.71,-1.82,-0.02,1.00,-0.00,5.00,100165.00,67.89350,21.10520,354.62000,2245857.67,866838.54,5886961.57
13914.862700,9.71,-1.80,-0.02,0.00,3.00,-7.00,100165.00,67.89350,21.10520,356.58000,2245857.67,866838.54,5886961.57
13914.962700,9.71,-1.80,-0.03,3.00,-0.00,0.00,100168.00,67.89350,21.10520,356.58000,2245857.67,866838.54,5886961.57
13915.062500,9.72,-1.80,-0.03,-5.00,-9.00,0.00,100168.00,67.89350,21.10520,356.58000,2245857.67,866838.54,5886961.57
13915.162700,9.71,-1.81,-0.02,0.00,-4.00,-8.00,100168.00,67.89350,21.10520,356.58000,2245857.67,866838.54,5886961.57
13915.265700,9.72,-1.81,-0.02,7.00,5.00,-4.00,100168.00,67.89350,21.10520,356.58000,2245858.36,866838.80,5886963.39
13915.365700,9.71,-1.81,-0.01,9.00,-2.00,0.00,100168.00,67.89350,21.10520,356.58000,2245858.36,866838.80,5886963.39
13915.465700,9.71,-1.80,-0.02,-1.00,-2.00,-4.00,100168.00,67.89350,21.10520,356.58000,2245858.36,866838.80,5886963.39
13915.565700,9.73,-1.81,-0.02,-2.00,3.00,0.00,100168.00,67.89350,21.10520,356.58000,2245858.36,866838.80,5886963.39
13915.683200,9.71,-1.82,-0.03,-6.00,3.00,1.00,100168.00,67.89350,21.10520,356.58000,2245858.36,866838.80,5886963.39
13915.765800,9.73,-1.81,-0.03,-1.00,-1.00,-8.00,100168.00,67.89350,21.10520,356.58000,2245858.36,866838.80,5886963.39
13915.865700,9.72,-1.82,-0.02,2.00,-0.00,0.00,100168.00,67.89350,21.10520,356.58000,2245858.36,866838.80,5886963.39
13915.965700,9.72,-1.80,-0.01,4.00,3.00,3.00,100168.00,67.89350,21.10520,356.58000,2245858.36,866838.80,5886963.39
13916.065700,9.73,-1.81,-0.02,1.00,2.00,-5.00,100168.00,67.89350,21.10520,356.58000,2245858.36,866838.80,5886963.39
13916.165800,9.72,-1.80,-0.02,-5.00,-3.00,3.00,100168.00,67.89350,21.10520,356.58000,2245858.36,866838.80,5886963.39
13916.265700,9.72,-1.81,-0.02,8.00,-1.00,1.00,100168.00,67.89350,21.10520,356.58000,2245858.36,866838.80,5886963.39
13916.365700,9.73,-1.82,-0.02,-6.00,-0.00,0.00,100168.00,67.89350,21.10520,356.58000,2245858.36,866838.80,5886963.39
13916.465700,9.71,-1.81,-0.02,6.00,-2.00,0.00,100168.00,67.89350,21.10520,356.58000,2245858.36,866838.80,5886963.39
13916.565700,9.71,-1.81,-0.01,-2.00,1.00,0.00,100168.00,67.89350,21.10520,356.58000,2245858.36,866838.80,5886963.39
13916.665700,9.72,-1.81,-0.02,3.00,-0.00,0.00,100168.00,67.89350,21.10520,356.58000,2245858.36,866838.80,5886963.39
13916.765700,9.71,-1.81,-0.02,3.00,4.00,-3.00,100168.00,67.89350,21.10520,356.58000,2245858.36,866838.80,5886963.39
13916.865700,9.71,-1.81,-0.02,3.00,-1.00,-2.00,100168.00,67.89350,21.10520,361.91000,2245858.36,866838.80,5886963.39
13916.965700,9.71,-1.80,-0.03,5.00,-2.00,2.00,100168.00,67.89350,21.10520,361.91000,2245858.36,866838.80,5886963.39
13917.065700,9.73,-1.81,-0.03,4.00,-1.00,3.00,100168.00,67.89350,21.10520,361.91000,2245858.36,866838.80,5886963.39
13917.165700,9.73,-1.82,-0.02,-4.00,-7.00,0.00,100168.00,67.89350,21.10520,361.91000,2245858.36,866838.80,5886963.39
13917.262700,9.72,-1.80,-0.02,-2.00,2.00,-3.00,100168.00,67.89340,21.10520,361.91000,2245869.87,866843.25,5886964.13
13917.362700,9.71,-1.80,-0.02,-1.00,-2.00,10.00,100168.00,67.89340,21.10520,361.91000,2245869.87,866843.25,5886964.13
13917.462700,9.72,-1.80,-0.02,0.00,-3.00,-1.00,100168.00,67.89340,21.10520,361.91000,2245869.87,866843.25,5886964.13
13917.562700,9.71,-1.81,-0.02,-1.00,4.00,6.00,100168.00,67.89340,21.10520,361.91000,2245869.87,866843.25,5886964.13
13917.662600,9.72,-1.81,-0.02,2.00,5.00,-2.00,100168.00,67.89340,21.10520,361.91000,2245869.87,866843.25,5886964.13
13917.762500,9.73,-1.80,-0.02,2.00,-0.00,-2.00,100168.00,67.89340,21.10520,361.91000,2245869.87,866843.25,5886964.13
13917.862700,9.72,-1.82,-0.02,-7.00,-0.00,3.00,100168.00,67.89340,21.10520,361.91000,2245869.87,866843.25,5886964.13
13917.962700,9.72,-1.80,-0.02,0.00,-4.00,-3.00,100164.00,67.89340,21.10520,361.91000,2245869.87,866843.25,5886964.13
13918.062700,9.72,-1.80,-0.02,0.00,-1.00,1.00,100164.00,67.89340,21.10520,361.91000,2245869.87,866843.25,5886964.13
13918.162700,9.73,-1.81,-0.04,0.00,-0.00,0.00,100164.00,67.89340,21.10520,361.91000,2245869.87,866843.25,5886964.13
13918.265500,9.72,-1.82,-0.03,2.00,-0.00,2.00,100164.00,67.89340,21.10520,361.91000,2245869.87,866843.25,5886964.13
13918.365600,9.73,-1.81,-0.03,-3.00,-3.00,-2.00,100164.00,67.89340,21.10520,361.91000,2245869.87,866843.25,5886964.13
13918.465700,9.72,-1.81,-0.03,-3.00,-1.00,2.00,100164.00,67.89340,21.10520,361.91000,2245869.87,866843.25,5886964.13
13918.565700,9.71,-1.81,-0.02,1.00,-4.00,0.00,100164.00,67.89340,21.10520,361.91000,2245869.87,866843.25,5886964.13
13918.665700,9.71,-1.81,-0.01,0.00,-2.00,-1.00,100164.00,67.89340,21.10520,361.91000,2245869.87,866843.25,5886964.13
13918.765700,9.73,-1.81,-0.03,0.00,-3.00,-1.00,100164.00,67.89340,21.10520,361.91000,2245869.87,866843.25,5886964.13
13918.865700,9.72,-1.81,-0.03,0.00,-1.00,0.00,100164.00,67.89340,21.10520,357.33000,2245869.87,866843.25,5886964.13
13918.965700,9.72,-1.82,-0.02,0.00,-1.00,5.00,100164.00,67.89340,21.10520,357.33000,2245869.87,866843.25,5886964.13
13919.065700,9.72,-1.81,-0.03,-3.00,4.00,1.00,100164.00,67.89340,21.10520,357.33000,2245869.87,866843.25,5886964.13
13919.165700,9.71,-1.80,-0.02,-1.00,3.00,2.00,100164.00,67.89340,21.10520,357.33000,2245869.87,866843.25,5886964.13
13919.265700,9.71,-1.81,-0.01,-4.00,-0.00,-4.00,100164.00,67.89340,21.10520,357.33000,2245868.27,866842.63,5886959.88
13919.365700,9.73,-1.82,-0.02,-5.00,2.00,0.00,100164.00,67.89340,21.10520,357.33000,2245868.27,866842.63,5886959.88
13919.465500,9.72,-1.81,-0.04,11.00,1.00,-3.00,100164.00,67.89340,21.10520,357.33000,2245868.27,866842.63,5886959.88
13919.565700,9.71,-1.81,-0.03,0.00,2.00,0.00,100164.00,67.89340,21.10520,357.33000,2245868.27,866842.63,5886959.88
13919.665700,9.72,-1.81,-0.02,0.00,1.00,0.00,100164.00,67.89340,21.10520,357.33000,2245868.27,866842.63,5886959.88
13919.765700,9.72,-1.82,-0.02,3.00,-0.00,-1.00,100164.00,67.89340,21.10520,357.33000,2245868.27,866842.63,5886959.88
13919.865700,9.71,-1.81,-0.02,6.00,1.00,0.00,100164.00,67.89340,21.10520,357.33000,2245868.27,866842.63,5886959.88
13919.965700,9.71,-1.82,-0.02,3.00,1.00,0.00,100164.00,67.89340,21.10520,357.33000,2245868.27,866842.63,5886959.88
13920.268300,9.72,-1.81,-0.02,-6.00,-0.00,-2.00,100164.00,67.89340,21.10520,357.33000,2245868.27,866842.63,5886959.88
13920.302600,9.72,-1.81,-0.03,2.00,-1.00,0.00,100164.00,67.89340,21.10520,357.33000,2245868.27,866842.63,5886959.88
13920.336200,9.73,-1.82,-0.04,-5.00,-3.00,0.00,100164.00,67.89340,21.10520,357.33000,2245868.27,866842.63,5886959.88
13920.370300,9.72,-1.82,-0.03,-6.00,-1.00,0.00,100164.00,67.89340,21.10520,357.33000,2245868.27,866842.63,5886959.88
13920.403300,9.71,-1.81,-0.02,7.00,-0.00,-2.00,100164.00,67.89340,21.10520,357.33000,2245868.27,866842.63,5886959.88
13920.493900,9.71,-1.80,-0.03,9.00,-2.00,0.00,100164.00,67.89340,21.10520,357.33000,2245868.27,866842.63,5886959.88
13920.593900,9.72,-1.81,-0.03,4.00,-4.00,-5.00,100164.00,67.89340,21.10520,357.33000,2245868.27,866842.63,5886959.88
13920.694000,9.70,-1.81,0.00,2.00,-4.00,2.00,100164.00,67.89340,21.10520,357.33000,2245868.27,866842.63,5886959.88
13920.794000,9.72,-1.81,-0.02,0.00,-2.00,1.00,100164.00,67.89340,21.10520,356.86000,2245868.27,866842.63,5886959.88
13920.893900,9.73,-1.82,-0.02,-2.00,2.00,1.00,100167.00,67.89340,21.10520,356.86000,2245868.27,866842.63,5886959.88
13921.022900,9.71,-1.81,-0.04,0.00,9.00,-3.00,100167.00,67.89340,21.10520,356.86000,2245868.27,866842.63,5886959.88
13921.094000,9.71,-1.81,-0.02,0.00,-2.00,-11.00,100167.00,67.89340,21.10520,356.86000,2245868.27,866842.63,5886959.88
13921.265700,9.72,-1.82,-0.03,-7.00,-0.00,-2.00,100167.00,67.89340,21.10520,356.86000,2245868.10,866842.56,5886959.45
13921.365700,9.73,-1.81,-0.02,1.00,5.00,7.00,100167.00,67.89340,21.10520,356.86000,2245868.10,866842.56,5886959.45
13921.465600,9.73,-1.82,-0.04,0.00,-0.00,2.00,100167.00,67.89340,21.10520,356.86000,2245868.10,866842.56,5886959.45
13921.565600,9.72,-1.81,-0.02,1.00,5.00,0.00,100167.00,67.89340,21.10520,356.86000,2245868.10,866842.56,5886959.45
13921.665600,9.72,-1.81,-0.01,2.00,-2.00,3.00,100167.00,67.89340,21.10520,356.86000,2245868.10,866842.56,5886959.45
13921.765500,9.71,-1.80,-0.03,-1.00,-0.00,-5.00,100167.00,67.89340,21.10520,356.86000,2245868.10,866842.56,5886959.45
13921.865600,9.73,-1.80,-0.02,4.00,-0.00,0.00,100167.00,67.89340,21.10520,356.86000,2245868.10,866842.56,5886959.45
13921.965700,9.73,-1.82,-0.03,-2.00,-1.00,-4.00,100167.00,67.89340,21.10520,356.86000,2245868.10,866842.56,5886959.45
13922.065700,9.71,-1.81,-0.02,6.00,-5.00,2.00,100167.00,67.89340,21.10520,356.86000,2245868.10,866842.56,5886959.45
13922.184600,9.72,-1.81,-0.02,1.00,-3.00,-2.00,100167.00,67.89340,21.10520,356.86000,2245868.10,866842.56,5886959.45
13922.265700,9.72,-1.80,-0.01,0.00,-4.00,-2.00,100167.00,67.89340,21.10520,356.86000,2245868.10,866842.56,5886959.45
13922.365700,9.73,-1.80,-0.02,3.00,1.00,6.00,100167.00,67.89340,21.10520,356.86000,2245868.10,866842.56,5886959.45
13922.465700,9.73,-1.80,-0.02,8.00,1.00,-3.00,100167.00,67.89340,21.10520,356.86000,2245868.10,866842.56,5886959.45
13922.565700,9.72,-1.82,-0.02,3.00,-0.00,5.00,100167.00,67.89340,21.10520,356.86000,2245868.10,866842.56,5886959.45
13922.665700,9.72,-1.82,-0.01,-5.00,5.00,0.00,100167.00,67.89340,21.10520,356.86000,2245868.10,866842.56,5886959.45
13922.765700,9.72,-1.81,-0.01,4.00,2.00,3.00,100167.00,67.89340,21.10520,356.86000,2245868.10,866842.56,5886959.45
13922.865600,9.72,-1.80,-0.02,2.00,-3.00,6.00,100167.00,67.89340,21.10520,346.86000,2245868.10,866842.56,5886959.45
13922.965700,9.72,-1.82,-0.02,4.00,-0.00,-4.00,100167.00,67.89340,21.10520,346.86000,2245868.10,866842.56,5886959.45
13923.065500,9.72,-1.83,-0.02,5.00,-2.00,0.00,100167.00,67.89340,21.10520,346.86000,2245868.10,866842.56,5886959.45
13923.165700,9.72,-1.82,-0.04,0.00,-0.00,0.00,100167.00,67.89340,21.10520,346.86000,2245868.10,866842.56,5886959.45
13923.278700,9.72,-1.82,-0.02,-10.00,2.00,1.00,100167.00,67.89340,21.10520,346.86000,2245868.10,866842.56,5886959.45
13923.362600,9.71,-1.80,-0.02,3.00,-2.00,2.00,100167.00,67.89340,21.10520,346.86000,2245864.59,866841.21,5886950.18
13923.462600,9.73,-1.81,-0.03,0.00,-0.00,3.00,100167.00,67.89340,21.10520,346.86000,2245864.59,866841.21,5886950.18
13923.562600,9.72,-1.81,-0.02,0.00,-0.00,3.00,100167.00,67.89340,21.10520,346.86000,2245864.59,866841.21,5886950.18
13923.662600,9.72,-1.81,-0.02,-2.00,-9.00,0.00,100167.00,67.89340,21.10520,346.86000,2245864.59,866841.21,5886950.18
13923.762600,9.71,-1.81,-0.02,3.00,-2.00,3.00,100167.00,67.89340,21.10520,346.86000,2245864.59,866841.21,5886950.18
13923.862600,9.71,-1.81,-0.03,0.00,3.00,0.00,100167.00,67.89340,21.10520,346.86000,2245864.59,866841.21,5886950.18
13923.962600,9.71,-1.80,-0.02,8.00,-10.00,0.00,100168.00,67.89340,21.10520,346.86000,2245864.59,866841.21,5886950.18
13924.062600,9.71,-1.81,-0.03,-1.00,3.00,0.00,100168.00,67.89340,21.10520,346.86000,2245864.59,866841.21,5886950.18
13924.162600,9.71,-1.80,-0.02,-8.00,-0.00,1.00,100168.00,67.89340,21.10520,346.86000,2245864.59,866841.21,5886950.18
13924.265700,9.72,-1.82,-0.03,1.00,1.00,4.00,100168.00,67.89340,21.10520,346.86000,2245864.59,866841.21,5886950.18
13924.365700,9.71,-1.81,-0.03,5.00,1.00,5.00,100168.00,67.89340,21.10520,346.86000,2245864.59,866841.21,5886950.18
13924.465700,9.71,-1.81,-0.03,5.00,1.00,-2.00,100168.00,67.89340,21.10520,346.86000,2245864.59,866841.21,5886950.18
13924.565700,9.72,-1.82,-0.03,0.00,-2.00,0.00,100168.00,67.89340,21.10520,346.86000,2245864.59,866841.21,5886950.18
13924.665600,9.72,-1.82,-0.02,2.00,-0.00,0.00,100168.00,67.89340,21.10520,346.86000,2245864.59,866841.21,5886950.18
13924.765500,9.71,-1.82,-0.04,-2.00,-2.00,5.00,100168.00,67.89340,21.10520,346.86000,2245864.59,866841.21,5886950.18
13924.865700,9.71,-1.80,-0.03,-1.00,-1.00,5.00,100168.00,67.89340,21.10520,329.20000,2245864.59,866841.21,5886950.18
13924.965600,9.72,-1.81,-0.02,-8.00,-0.00,5.00,100168.00,67.89340,21.10520,329.20000,2245864.59,866841.21,5886950.18
13925.065700,9.72,-1.82,-0.02,5.00,2.00,0.00,100168.00,67.89340,21.10520,329.20000,2245864.59,866841.21,5886950.18
13925.165700,9.72,-1.81,-0.03,7.00,2.00,-3.00,100168.00,67.89340,21.10520,329.20000,2245864.59,866841.21,5886950.18
13925.265600,9.71,-1.81,-0.02,1.00,-1.00,0.00,100168.00,67.89340,21.10520,329.20000,2245858.39,866838.81,5886933.82
13925.365700,9.73,-1.81,-0.02,0.00,-1.00,0.00,100168.00,67.89340,21.10520,329.20000,2245858.39,866838.81,5886933.82
13925.465700,9.70,-1.81,-0.01,0.00,3.00,0.00,100168.00,67.89340,21.10520,329.20000,2245858.39,866838.81,5886933.82
13925.565600,9.73,-1.80,-0.02,-6.00,1.00,2.00,100168.00,67.89340,21.10520,329.20000,2245858.39,866838.81,5886933.82
13925.665600,9.72,-1.81,-0.02,-9.00,-3.00,-3.00,100168.00,67.89340,21.10520,329.20000,2245858.39,866838.81,5886933.82
13925.765700,9.72,-1.80,-0.02,0.00,-0.00,-8.00,100168.00,67.89340,21.10520,329.20000,2245858.39,866838.81,5886933.82
13925.865600,9.71,-1.82,-0.02,0.00,4.00,-7.00,100168.00,67.89340,21.10520,329.20000,2245858.39,866838.81,5886933.82
13925.965700,9.72,-1.81,-0.01,0.00,2.00,0.00,100168.00,67.89340,21.10520,329.20000,2245858.39,866838.81,5886933.82
13926.065700,9.71,-1.82,-0.02,3.00,-0.00,-1.00,100168.00,67.89340,21.10520,329.20000,2245858.39,866838.81,5886933.82
13926.165700,9.73,-1.82,-0.02,3.00,-1.00,-3.00,100168.00,67.89340,21.10520,329.20000,2245858.39,866838.81,5886933.82
13926.262600,9.72,-1.82,-0.02,0.00,6.00,-6.00,100168.00,67.89340,21.10520,329.20000,2245858.39,866838.81,5886933.82
13926.362700,9.71,-1.81,-0.03,-10.00,-5.00,1.00,100168.00,67.89340,21.10520,329.20000,2245858.39,866838.81,5886933.82
13926.462600,9.71,-1.83,-0.03,-2.00,-1.00,-4.00,100168.00,67.89340,21.10520,329.20000,2245858.39,866838.81,5886933.82
13926.562600,9.73,-1.82,-0.01,-1.00,-0.00,3.00,100168.00,67.89340,21.10520,329.20000,2245858.39,866838.81,5886933.82
13926.662600,9.73,-1.81,-0.03,2.00,4.00,-1.00,100168.00,67.89340,21.10520,329.20000,2245858.39,866838.81,5886933.82
13926.762500,9.72,-1.80,-0.03,6.00,-3.00,-1.00,100168.00,67.89340,21.10520,329.20000,2245858.39,866838.81,5886933.82
13926.862600,9.72,-1.80,-0.03,5.00,2.00,-2.00,100168.00,67.89340,21.10520,328.25000,2245858.39,866838.81,5886933.82
13926.962600,9.72,-1.81,-0.02,1.00,-7.00,2.00,100171.00,67.89340,21.10520,328.25000,2245858.39,866838.81,5886933.82
13927.062600,9.71,-1.81,-0.03,-1.00,1.00,6.00,100171.00,67.89340,21.10520,328.25000,2245858.39,866838.81,5886933.82
13927.162700,9.71,-1.81,-0.02,5.00,-0.00,-2.00,100171.00,67.89340,21.10520,328.25000,2245858.39,866838.81,5886933.82
13927.266600,9.72,-1.81,-0.04,0.00,-1.00,7.00,100171.00,67.89350,21.10520,328.25000,2245848.42,866834.96,5886937.14
13927.366700,9.72,-1.81,-0.03,-3.00,-0.00,-2.00,100171.00,67.89350,21.10520,328.25000,2245848.42,866834.96,5886937.14
13927.466600,9.71,-1.80,-0.02,4.00,4.00,4.00,100171.00,67.89350,21.10520,328.25000,2245848.42,866834.96,5886937.14
13927.566600,9.72,-1.81,-0.02,1.00,6.00,0.00,100171.00,67.89350,21.10520,328.25000,2245848.42,866834.96,5886937.14
13927.666600,9.72,-1.81,-0.02,2.00,-1.00,0.00,100171.00,67.89350,21.10520,328.25000,2245848.42,866834.96,5886937.14
13927.766600,9.72,-1.82,-0.03,2.00,-4.00,4.00,100171.00,67.89350,21.10520,328.25000,2245848.42,866834.96,5886937.14
13927.866700,9.72,-1.82,-0.02,3.00,-0.00,0.00,100171.00,67.89350,21.10520,328.25000,2245848.42,866834.96,5886937.14
13927.966600,9.71,-1.81,-0.03,-3.00,-5.00,2.00,100171.00,67.89350,21.10520,328.25000,2245848.42,866834.96,5886937.14
13928.066700,9.71,-1.81,-0.04,-5.00,-0.00,-1.00,100171.00,67.89350,21.10520,328.25000,2245848.42,866834.96,5886937.14
13928.166700,9.71,-1.81,-0.03,-3.00,5.00,0.00,100171.00,67.89350,21.10520,328.25000,2245848.42,866834.96,5886937.14
13928.266600,9.72,-1.81,-0.02,2.00,-3.00,5.00,100171.00,67.89350,21.10520,328.25000,2245848.42,866834.96,5886937.14
13928.366500,9.72,-1.82,-0.03,2.00,7.00,1.00,100171.00,67.89350,21.10520,328.25000,2245848.42,866834.96,5886937.14
13928.466700,9.72,-1.82,-0.03,0.00,2.00,4.00,100171.00,67.89350,21.10520,328.25000,2245848.42,866834.96,5886937.14
13928.566600,9.71,-1.80,-0.03,4.00,-2.00,-2.00,100171.00,67.89350,21.10520,328.25000,2245848.42,866834.96,5886937.14
13928.693500,9.73,-1.80,-0.04,-2.00,-1.00,0.00,100171.00,67.89350,21.10520,328.25000,2245848.42,866834.96,5886937.14
13928.766700,9.71,-1.80,-0.02,4.00,-0.00,2.00,100171.00,67.89350,21.10520,328.25000,2245848.42,866834.96,5886937.14
13928.866700,9.72,-1.81,-0.04,1.00,-0.00,3.00,100171.00,67.89350,21.10520,332.68000,2245848.42,866834.96,5886937.14
13928.966600,9.71,-1.80,-0.03,0.00,2.00,-1.00,100171.00,67.89350,21.10520,332.68000,2245848.42,866834.96,5886937.14
13929.066700,9.71,-1.82,-0.02,0.00,3.00,2.00,100171.00,67.89350,21.10520,332.68000,2245848.42,866834.96,5886937.14
13929.166700,9.72,-1.82,-0.02,-3.00,3.00,2.00,100171.00,67.89350,21.10520,332.68000,2245848.42,866834.96,5886937.14
13929.222900,9.72,-1.82,-0.01,-3.00,-0.00,-2.00,100171.00,67.89350,21.10520,332.68000,2245849.97,866835.56,5886941.24
13929.323000,9.71,-1.82,-0.02,-2.00,1.00,-4.00,100171.00,67.89350,21.10520,332.68000,2245849.97,866835.56,5886941.24
13929.422900,9.71,-1.82,-0.01,3.00,-0.00,4.00,100171.00,67.89350,21.10520,332.68000,2245849.97,866835.56,5886941.24
13929.522900,9.71,-1.80,-0.02,2.00,-0.00,0.00,100171.00,67.89350,21.10520,332.68000,2245849.97,866835.56,5886941.24
13929.622900,9.72,-1.82,-0.02,2.00,-2.00,0.00,100171.00,67.89350,21.10520,332.68000,2245849.97,866835.56,5886941.24
13929.752100,9.73,-1.80,-0.02,-3.00,-1.00,-2.00,100171.00,67.89350,21.10520,332.68000,2245849.97,866835.56,5886941.24
13929.822900,9.71,-1.81,-0.02,2.00,2.00,2.00,100171.00,67.89350,21.10520,332.68000,2245849.97,866835.56,5886941.24
13929.923000,9.72,-1.81,-0.02,-5.00,8.00,0.00,100163.00,67.89350,21.10520,332.68000,2245849.97,866835.56,5886941.24
13930.023000,9.71,-1.81,-0.03,3.00,-2.00,3.00,100163.00,67.89350,21.10520,332.68000,2245849.97,866835.56,5886941.24
13930.123000,9.71,-1.82,-0.02,-1.00,-1.00,2.00,100163.00,67.89350,21.10520,332.68000,2245849.97,866835.56,5886941.24
13930.225900,9.72,-1.81,-0.02,-1.00,-6.00,-2.00,100163.00,67.89350,21.10520,332.68000,2245849.97,866835.56,5886941.24
13930.325900,9.71,-1.81,-0.03,5.00,-4.00,-6.00,100163.00,67.89350,21.10520,332.68000,2245849.97,866835.56,5886941.24
13930.425900,9.72,-1.81,-0.02,1.00,6.00,-4.00,100163.00,67.89350,21.10520,332.68000,2245849.97,866835.56,5886941.24
13930.525900,9.72,-1.82,-0.02,-7.00,3.00,-1.00,100163.00,67.89350,21.10520,332.68000,2245849.97,866835.56,5886941.24
13930.625900,9.73,-1.80,-0.02,5.00,-3.00,-2.00,100163.00,67.89350,21.10520,332.68000,2245849.97,866835.56,5886941.24
13930.725900,9.71,-1.81,-0.02,3.00,-2.00,2.00,100163.00,67.89350,21.10520,332.68000,2245849.97,866835.56,5886941.24
13931.147100,9.72,-1.81,-0.03,0.00,-1.00,-3.00,100163.00,67.89350,21.10520,332.68000,2245849.97,866835.56,5886941.24
13931.218100,9.72,-1.81,-0.03,4.00,-2.00,-4.00,100163.00,67.89350,21.10520,332.68000,2245849.97,866835.56,5886941.24
13931.251500,9.73,-1.81,-0.03,-1.00,-0.00,-2.00,100163.00,67.89350,21.10520,332.68000,2245849.97,866835.56,5886941.24
13931.285000,9.73,-1.81,-0.01,0.00,4.00,-1.00,100163.00,67.89350,21.10520,332.68000,2245849.97,866835.56,5886941.24
13931.318200,9.72,-1.81,-0.01,0.00,5.00,0.00,100163.00,67.89350,21.10520,332.68000,2245849.97,866835.56,5886941.24
13931.363300,9.72,-1.81,-0.02,-3.00,-4.00,5.00,100163.00,67.89350,21.10520,354.11000,2245857.49,866838.47,5886961.10
13931.463200,9.72,-1.80,-0.02,-4.00,-1.00,-5.00,100163.00,67.89350,21.10520,354.11000,2245857.49,866838.47,5886961.10
13931.563200,9.71,-1.80,-0.02,0.00,-0.00,-4.00,100163.00,67.89350,21.10520,354.11000,2245857.49,866838.47,5886961.10
13931.663200,9.72,-1.81,-0.02,-5.00,-1.00,2.00,100163.00,67.89350,21.10520,354.11000,2245857.49,866838.47,5886961.10
13931.763200,9.72,-1.81,-0.02,-2.00,-1.00,-3.00,100163.00,67.89350,21.10520,354.11000,2245857.49,866838.47,5886961.10
13931.863200,9.72,-1.80,-0.02,4.00,5.00,-7.00,100163.00,67.89350,21.10520,354.11000,2245857.49,866838.47,5886961.10
13931.963200,9.72,-1.81,-0.03,0.00,1.00,4.00,100163.00,67.89350,21.10520,354.11000,2245857.49,866838.47,5886961.10
13932.063200,9.73,-1.82,-0.03,6.00,-1.00,2.00,100163.00,67.89350,21.10520,354.11000,2245857.49,866838.47,5886961.10
13932.163300,9.72,-1.81,-0.03,5.00,5.00,5.00,100163.00,67.89350,21.10520,354.11000,2245857.49,866838.47,5886961.10
13932.262100,9.72,-1.82,-0.02,-3.00,1.00,-1.00,100163.00,67.89350,21.10520,354.11000,2245857.49,866838.47,5886961.10
13932.362400,9.72,-1.82,-0.02,0.00,-0.00,-1.00,100163.00,67.89350,21.10520,354.11000,2245857.49,866838.47,5886961.10
13932.462300,9.73,-1.82,-0.02,-7.00,-7.00,8.00,100163.00,67.89350,21.10520,354.11000,2245857.49,866838.47,5886961.10
13932.562300,9.72,-1.80,-0.03,-6.00,-0.00,2.00,100163.00,67.89350,21.10520,354.11000,2245857.49,866838.47,5886961.10
13932.662300,9.73,-1.80,-0.02,0.00,-1.00,-5.00,100163.00,67.89350,21.10520,354.11000,2245857.49,866838.47,5886961.10
13932.762300,9.71,-1.81,-0.02,0.00,-4.00,2.00,100163.00,67.89350,21.10520,354.11000,2245857.49,866838.47,5886961.10
13932.862300,9.73,-1.79,-0.02,0.00,1.00,4.00,100163.00,67.89350,21.10520,352.86000,2245857.49,866838.47,5886961.10
13932.962300,9.72,-1.81,-0.01,-7.00,-0.00,0.00,100165.00,67.89350,21.10520,352.86000,2245857.49,866838.47,5886961.10
13933.062300,9.72,-1.81,-0.02,-3.00,2.00,-1.00,100165.00,67.89350,21.10520,352.86000,2245857.49,866838.47,5886961.10
13933.162300,9.72,-1.82,-0.02,-8.00,-3.00,-2.00,100165.00,67.89350,21.10520,352.86000,2245857.49,866838.47,5886961.10
13933.265600,9.72,-1.82,-0.04,-4.00,-0.00,0.00,100165.00,67.89350,21.10530,352.86000,2245855.54,866842.22,5886959.94
13933.365700,9.72,-1.82,-0.03,1.00,1.00,1.00,100165.00,67.89350,21.10530,352.86000,2245855.54,866842.22,5886959.94
13933.465600,9.74,-1.80,-0.01,3.00,-2.00,5.00,100165.00,67.89350,21.10530,352.86000,2245855.54,866842.22,5886959.94
13933.565600,9.72,-1.81,-0.01,1.00,-5.00,1.00,100165.00,67.89350,21.10530,352.86000,2245855.54,866842.22,5886959.94
13933.665600,9.73,-1.82,-0.01,2.00,-5.00,1.00,100165.00,67.89350,21.10530,352.86000,2245855.54,866842.22,5886959.94
13933.765700,9.71,-1.81,-0.03,0.00,1.00,-2.00,100165.00,67.89350,21.10530,352.86000,2245855.54,866842.22,5886959.94
13933.865600,9.72,-1.82,-0.02,0.00,-3.00,3.00,100165.00,67.89350,21.10530,352.86000,2245855.54,866842.22,5886959.94
13933.965600,9.72,-1.82,-0.01,-12.00,-6.00,4.00,100165.00,67.89350,21.10530,352.86000,2245855.54,866842.22,5886959.94
13934.065700,9.72,-1.81,-0.02,4.00,-2.00,-2.00,100165.00,67.89350,21.10530,352.86000,2245855.54,866842.22,5886959.94
13934.165700,9.73,-1.82,-0.02,0.00,-0.00,-5.00,100165.00,67.89350,21.10530,352.86000,2245855.54,866842.22,5886959.94
13934.265600,9.72,-1.80,-0.03,-2.00,2.00,0.00,100165.00,67.89350,21.10530,352.86000,2245855.54,866842.22,5886959.94
13934.365700,9.71,-1.80,-0.02,-9.00,-2.00,-6.00,100165.00,67.89350,21.10530,352.86000,2245855.54,866842.22,5886959.94
13934.465500,9.72,-1.82,-0.03,-4.00,1.00,0.00,100165.00,67.89350,21.10530,352.86000,2245855.54,866842.22,5886959.94
13934.565600,9.71,-1.82,-0.02,-1.00,1.00,0.00,100165.00,67.89350,21.10530,352.86000,2245855.54,866842.22,5886959.94
13934.665600,9.72,-1.81,-0.02,7.00,6.00,-1.00,100165.00,67.89350,21.10530,352.86000,2245855.54,866842.22,5886959.94
13934.765600,9.72,-1.80,-0.03,-3.00,-0.00,2.00,100165.00,67.89350,21.10530,352.86000,2245855.54,866842.22,5886959.94
13934.865600,9.72,-1.80,-0.02,3.00,-5.00,-5.00,100165.00,67.89350,21.10530,344.46000,2245855.54,866842.22,5886959.94
13934.965600,9.71,-1.81,-0.04,2.00,-0.00,2.00,100165.00,67.89350,21.10530,344.46000,2245855.54,866842.22,5886959.94
13935.065700,9.73,-1.81,-0.03,0.00,-3.00,-1.00,100165.00,67.89350,21.10530,344.46000,2245855.54,866842.22,5886959.94
13935.165700,9.72,-1.81,-0.02,-3.00,-5.00,1.00,100165.00,67.89350,21.10530,344.46000,2245855.54,866842.22,5886959.94
13935.225100,9.73,-1.81,-0.03,0.00,2.00,2.00,100165.00,67.89350,21.10520,344.46000,2245854.11,866837.16,5886952.16
13935.325200,9.73,-1.82,-0.03,6.00,-1.00,-2.00,100165.00,67.89350,21.10520,344.46000,2245854.11,866837.16,5886952.16
13935.425100,9.71,-1.82,-0.02,-4.00,-1.00,3.00,100165.00,67.89350,21.10520,344.46000,2245854.11,866837.16,5886952.16
13935.525100,9.73,-1.82,-0.02,-6.00,2.00,-1.00,100165.00,67.89350,21.10520,344.46000,2245854.11,866837.16,5886952.16
13935.625100,9.71,-1.80,-0.02,-2.00,-4.00,-3.00,100165.00,67.89350,21.10520,344.46000,2245854.11,866837.16,5886952.16
13935.725100,9.72,-1.81,-0.02,-1.00,-0.00,1.00,100165.00,67.89350,21.10520,344.46000,2245854.11,866837.16,5886952.16
13935.825100,9.71,-1.81,-0.03,-3.00,3.00,1.00,100165.00,67.89350,21.10520,344.46000,2245854.11,866837.16,5886952.16
13935.925100,9.71,-1.80,-0.01,-7.00,-2.00,1.00,100167.00,67.89350,21.10520,344.46000,2245854.11,866837.16,5886952.16
13936.025200,9.71,-1.82,-0.02,-1.00,3.00,2.00,100167.00,67.89350,21.10520,344.46000,2245854.11,866837.16,5886952.16
13936.125000,9.71,-1.81,-0.03,2.00,1.00,-2.00,100167.00,67.89350,21.10520,344.46000,2245854.11,866837.16,5886952.16
13936.253500,9.71,-1.82,-0.03,3.00,-0.00,-1.00,100167.00,67.89350,21.10520,344.46000,2245854.11,866837.16,5886952.16
13936.327900,9.73,-1.82,-0.02,3.00,5.00,2.00,100167.00,67.89350,21.10520,344.46000,2245854.11,866837.16,5886952.16
13936.427900,9.73,-1.81,-0.03,1.00,-8.00,0.00,100167.00,67.89350,21.10520,344.46000,2245854.11,866837.16,5886952.16
13936.527900,9.71,-1.81,-0.02,1.00,4.00,-1.00,100167.00,67.89350,21.10520,344.46000,2245854.11,866837.16,5886952.16
13936.627900,9.71,-1.81,-0.01,-9.00,2.00,-1.00,100167.00,67.89350,21.10520,344.46000,2245854.11,866837.16,5886952.16
13936.727900,9.71,-1.81,-0.03,0.00,1.00,-6.00,100167.00,67.89350,21.10520,344.46000,2245854.11,866837.16,5886952.16
13936.827900,9.71,-1.81,-0.03,1.00,-4.00,0.00,100167.00,67.89350,21.10520,346.60000,2245854.11,866837.16,5886952.16
13936.927900,9.72,-1.82,-0.02,-3.00,1.00,-4.00,100167.00,67.89350,21.10520,346.60000,2245854.11,866837.16,5886952.16
13937.027900,9.71,-1.82,-0.04,-6.00,5.00,4.00,100167.00,67.89350,21.10520,346.60000,2245854.11,866837.16,5886952.16
13937.127900,9.72,-1.82,-0.04,0.00,-4.00,-7.00,100167.00,67.89350,21.10520,346.60000,2245854.11,866837.16,5886952.16
13937.265600,9.71,-1.81,-0.02,3.00,-3.00,0.00,100167.00,67.89350,21.10530,346.60000,2245853.34,866841.37,5886954.14
13937.382500,9.73,-1.82,-0.02,-3.00,6.00,0.00,100167.00,67.89350,21.10530,346.60000,2245853.34,866841.37,5886954.14
13937.465600,9.71,-1.81,-0.02,-2.00,-0.00,2.00,100167.00,67.89350,21.10530,346.60000,2245853.34,866841.37,5886954.14
13937.565600,9.71,-1.80,-0.02,-2.00,7.00,-6.00,100167.00,67.89350,21.10530,346.60000,2245853.34,866841.37,5886954.14
13937.665600,9.73,-1.82,-0.02,10.00,4.00,0.00,100167.00,67.89350,21.10530,346.60000,2245853.34,866841.37,5886954.14
13937.765600,9.72,-1.81,-0.02,-3.00,-0.00,-2.00,100167.00,67.89350,21.10530,346.60000,2245853.34,866841.37,5886954.14
13937.865600,9.72,-1.81,-0.03,-1.00,-1.00,4.00,100167.00,67.89350,21.10530,346.60000,2245853.34,866841.37,5886954.14
13937.965600,9.71,-1.81,-0.02,-2.00,-1.00,-2.00,100167.00,67.89350,21.10530,346.60000,2245853.34,866841.37,5886954.14
13938.065700,9.73,-1.80,-0.02,-4.00,-4.00,-3.00,100167.00,67.89350,21.10530,346.60000,2245853.34,866841.37,5886954.14
13938.165700,9.71,-1.81,-0.02,8.00,1.00,-6.00,100167.00,67.89350,21.10530,346.60000,2245853.34,866841.37,5886954.14
13938.262500,9.71,-1.80,-0.02,9.00,1.00,-3.00,100167.00,67.89350,21.10530,346.60000,2245853.34,866841.37,5886954.14
13938.362600,9.72,-1.80,-0.02,3.00,-1.00,-5.00,100167.00,67.89350,21.10530,346.60000,2245853.34,866841.37,5886954.14
13938.472300,9.71,-1.82,-0.01,-1.00,7.00,9.00,100167.00,67.89350,21.10530,346.60000,2245853.34,866841.37,5886954.14
13938.562500,9.72,-1.81,-0.03,-7.00,2.00,-5.00,100167.00,67.89350,21.10530,346.60000,2245853.34,866841.37,5886954.14
13938.662300,9.71,-1.81,-0.02,0.00,5.00,0.00,100167.00,67.89350,21.10530,346.60000,2245853.34,866841.37,5886954.14
13938.762600,9.72,-1.81,-0.02,-1.00,-1.00,0.00,100167.00,67.89350,21.10530,346.60000,2245853.34,866841.37,5886954.14
13938.862500,9.73,-1.82,-0.02,4.00,-0.00,-4.00,100167.00,67.89350,21.10530,341.20000,2245853.34,866841.37,5886954.14
13938.962500,9.71,-1.81,-0.02,0.00,1.00,-4.00,100168.00,67.89350,21.10530,341.20000,2245853.34,866841.37,5886954.14
13939.062500,9.73,-1.82,-0.03,-8.00,-1.00,-2.00,100168.00,67.89350,21.10530,341.20000,2245853.34,866841.37,5886954.14
13939.162600,9.72,-1.82,-0.02,0.00,-4.00,5.00,100168.00,67.89350,21.10530,341.20000,2245853.34,866841.37,5886954.14
13939.266400,9.72,-1.81,-0.01,-8.00,3.00,-5.00,100168.00,67.89350,21.10530,341.20000,2245851.45,866840.64,5886949.14
13939.366400,9.71,-1.80,-0.03,-3.00,3.00,-4.00,100168.00,67.89350,21.10530,341.20000,2245851.45,866840.64,5886949.14
13939.466300,9.74,-1.81,-0.02,1.00,6.00,-5.00,100168.00,67.89350,21.10530,341.20000,2245851.45,866840.64,5886949.14
13939.566300,9.72,-1.82,-0.01,6.00,3.00,-2.00,100168.00,67.89350,21.10530,341.20000,2245851.45,866840.64,5886949.14
13939.666300,9.71,-1.80,-0.02,-5.00,-0.00,0.00,100168.00,67.89350,21.10530,341.20000,2245851.45,866840.64,5886949.14
13939.766400,9.71,-1.81,-0.02,1.00,6.00,5.00,100168.00,67.89350,21.10530,341.20000,2245851.45,866840.64,5886949.14
13939.866400,9.71,-1.82,-0.02,-3.00,-4.00,3.00,100168.00,67.89350,21.10530,341.20000,2245851.45,866840.64,5886949.14
13939.966300,9.70,-1.81,-0.01,-2.00,3.00,-1.00,100168.00,67.89350,21.10530,341.20000,2245851.45,866840.64,5886949.14
13940.066400,9.72,-1.80,-0.02,0.00,-5.00,-7.00,100168.00,67.89350,21.10530,341.20000,2245851.45,866840.64,5886949.14
13940.166200,9.73,-1.81,-0.03,-1.00,4.00,2.00,100168.00,67.89350,21.10530,341.20000,2245851.45,866840.64,5886949.14
13940.266400,9.72,-1.80,-0.02,-1.00,5.00,2.00,100168.00,67.89350,21.10530,341.20000,2245851.45,866840.64,5886949.14
13940.366400,9.72,-1.82,-0.03,6.00,-5.00,-3.00,100168.00,67.89350,21.10530,341.20000,2245851.45,866840.64,5886949.14
13940.466400,9.72,-1.80,-0.02,7.00,-0.00,-3.00,100168.00,67.89350,21.10530,341.20000,2245851.45,866840.64,5886949.14
13940.566400,9.72,-1.80,-0.01,5.00,2.00,-2.00,100168.00,67.89350,21.10530,341.20000,2245851.45,866840.64,5886949.14
13940.670800,9.71,-1.80,-0.04,0.00,-0.00,3.00,100168.00,67.89350,21.10530,341.20000,2245851.45,866840.64,5886949.14
13940.766400,9.73,-1.80,-0.02,10.00,2.00,1.00,100168.00,67.89350,21.10530,341.20000,2245851.45,866840.64,5886949.14
13940.866400,9.73,-1.80,-0.02,3.00,6.00,4.00,100168.00,67.89350,21.10530,345.69000,2245851.45,866840.64,5886949.14
13940.966400,9.73,-1.81,-0.02,0.00,2.00,4.00,100168.00,67.89350,21.10530,345.69000,2245851.45,866840.64,5886949.14
13941.066400,9.73,-1.82,-0.02,0.00,-0.00,1.00,100168.00,67.89350,21.10530,345.69000,2245851.45,866840.64,5886949.14
13941.166400,9.72,-1.81,-0.02,4.00,6.00,0.00,100168.00,67.89350,21.10530,345.69000,2245851.45,866840.64,5886949.14
13941.228900,9.73,-1.82,-0.03,0.00,-0.00,-2.00,100168.00,67.89350,21.10530,345.69000,2245853.03,866841.25,5886953.30
13941.329000,9.73,-1.82,-0.02,-3.00,-2.00,-3.00,100168.00,67.89350,21.10530,345.69000,2245853.03,866841.25,5886953.30
13941.428900,9.72,-1.80,-0.02,-1.00,-1.00,3.00,100168.00,67.89350,21.10530,345.69000,2245853.03,866841.25,5886953.30
13941.528900,9.72,-1.83,-0.02,0.00,-1.00,0.00,100168.00,67.89350,21.10530,345.69000,2245853.03,866841.25,5886953.30
13941.629000,9.71,-1.80,-0.02,-2.00,5.00,1.00,100168.00,67.89350,21.10530,345.69000,2245853.03,866841.25,5886953.30
13942.003200,9.71,-1.81,-0.03,2.00,4.00,6.00,100170.00,67.89350,21.10530,345.69000,2245853.03,866841.25,5886953.30
13942.036700,9.73,-1.81,-0.03,-1.00,-2.00,-2.00,100170.00,67.89350,21.10530,345.69000,2245853.03,866841.25,5886953.30
13942.070200,9.72,-1.81,-0.03,-3.00,2.00,6.00,100170.00,67.89350,21.10530,345.69000,2245853.03,866841.25,5886953.30
13942.103500,9.72,-1.81,-0.02,5.00,-0.00,-1.00,100170.00,67.89350,21.10530,345.69000,2245853.03,866841.25,5886953.30
13942.137000,9.72,-1.81,-0.02,4.00,1.00,-2.00,100170.00,67.89350,21.10530,345.69000,2245853.03,866841.25,5886953.30
13942.231900,9.73,-1.82,-0.02,-1.00,1.00,0.00,100170.00,67.89350,21.10530,345.69000,2245853.03,866841.25,5886953.30
13942.331900,9.72,-1.81,-0.03,1.00,3.00,-2.00,100170.00,67.89350,21.10530,345.69000,2245853.03,866841.25,5886953.30
13942.431900,9.71,-1.81,-0.02,2.00,-0.00,3.00,100170.00,67.89350,21.10530,345.69000,2245853.03,866841.25,5886953.30
13942.531900,9.71,-1.81,-0.03,4.00,2.00,2.00,100170.00,67.89350,21.10530,345.69000,2245853.03,866841.25,5886953.30
13942.631900,9.71,-1.83,-0.02,-4.00,-3.00,0.00,100170.00,67.89350,21.10530,345.69000,2245853.03,866841.25,5886953.30
13942.731900,9.71,-1.82,-0.02,-5.00,-0.00,0.00,100170.00,67.89350,21.10530,345.69000,2245853.03,866841.25,5886953.30
13942.831900,9.71,-1.81,-0.02,0.00,-4.00,1.00,100170.00,67.89350,21.10530,350.49000,2245853.03,866841.25,5886953.30
13942.931900,9.71,-1.80,-0.01,-4.00,-1.00,2.00,100170.00,67.89350,21.10530,350.49000,2245853.03,866841.25,5886953.30
13943.032000,9.73,-1.81,-0.02,-2.00,3.00,0.00,100170.00,67.89350,21.10530,350.49000,2245853.03,866841.25,5886953.30
13943.132000,9.71,-1.80,-0.04,2.00,-6.00,-1.00,100170.00,67.89350,21.10530,350.49000,2245853.03,866841.25,5886953.30
13943.266400,9.73,-1.81,-0.02,0.00,-0.00,2.00,100170.00,67.89350,21.10530,350.49000,2245854.71,866841.90,5886957.74
13943.366500,9.71,-1.81,-0.04,-1.00,-0.00,6.00,100170.00,67.89350,21.10530,350.49000,2245854.71,866841.90,5886957.74
13943.466400,9.72,-1.82,-0.02,4.00,-2.00,1.00,100170.00,67.89350,21.10530,350.49000,2245854.71,866841.90,5886957.74
13943.566400,9.73,-1.82,-0.02,-3.00,-1.00,0.00,100170.00,67.89350,21.10530,350.49000,2245854.71,866841.90,5886957.74
13943.666400,9.71,-1.80,-0.02,-4.00,-1.00,2.00,100170.00,67.89350,21.10530,350.49000,2245854.71,866841.90,5886957.74
13943.766200,9.71,-1.81,-0.03,1.00,1.00,-2.00,100170.00,67.89350,21.10530,350.49000,2245854.71,866841.90,5886957.74
13943.892000,9.72,-1.82,-0.02,-2.00,-0.00,5.00,100170.00,67.89350,21.10530,350.49000,2245854.71,866841.90,5886957.74
13943.966400,9.71,-1.81,-0.03,3.00,-0.00,2.00,100170.00,67.89350,21.10530,350.49000,2245854.71,866841.90,5886957.74
13944.066400,9.71,-1.82,-0.01,1.00,1.00,7.00,100170.00,67.89350,21.10530,350.49000,2245854.71,866841.90,5886957.74
13944.166400,9.71,-1.81,-0.02,3.00,-5.00,4.00,100170.00,67.89350,21.10530,350.49000,2245854.71,866841.90,5886957.74
13944.263300,9.71,-1.80,-0.02,0.00,-3.00,-1.00,100170.00,67.89350,21.10530,350.49000,2245854.71,866841.90,5886957.74
13944.363300,9.71,-1.81,-0.03,0.00,3.00,2.00,100170.00,67.89350,21.10530,350.49000,2245854.71,866841.90,5886957.74
13944.463100,9.71,-1.81,-0.04,-5.00,2.00,2.00,100170.00,67.89350,21.10530,350.49000,2245854.71,866841.90,5886957.74
13944.563300,9.72,-1.82,-0.01,1.00,-9.00,-3.00,100170.00,67.89350,21.10530,350.49000,2245854.71,866841.90,5886957.74
13944.663300,9.73,-1.80,-0.02,0.00,-2.00,9.00,100170.00,67.89350,21.10530,350.49000,2245854.71,866841.90,5886957.74
13944.763400,9.71,-1.82,-0.02,1.00,4.00,-2.00,100170.00,67.89350,21.10530,350.49000,2245854.71,866841.90,5886957.74
13944.863300,9.73,-1.82,-0.02,0.00,-4.00,0.00,100170.00,67.89350,21.10530,359.48000,2245854.71,866841.90,5886957.74
13944.973000,9.72,-1.81,-0.03,0.00,1.00,5.00,-90863.00,67.89350,21.10530,359.48000,2245854.71,866841.90,5886957.74
13945.063300,9.72,-1.81,-0.02,-9.00,-1.00,0.00,-90863.00,67.89350,21.10530,359.48000,2245854.71,866841.90,5886957.74
13945.163300,9.71,-1.81,-0.03,1.00,2.00,3.00,-90863.00,67.89350,21.10530,359.48000,2245854.71,866841.90,5886957.74
13945.266600,9.71,-1.81,-0.03,0.00,-3.00,-9.00,-90863.00,67.89350,21.10530,359.48000,2245857.87,866843.12,5886966.07
13945.366600,9.71,-1.81,-0.02,0.00,-0.00,2.00,-90863.00,67.89350,21.10530,359.48000,2245857.87,866843.12,5886966.07
13945.466600,9.71,-1.82,-0.02,3.00,-10.00,0.00,-90863.00,67.89350,21.10530,359.48000,2245857.87,866843.12,5886966.07
13945.566600,9.71,-1.81,-0.02,4.00,3.00,5.00,-90863.00,67.89350,21.10530,359.48000,2245857.87,866843.12,5886966.07
13945.666600,9.71,-1.82,-0.02,-2.00,4.00,-2.00,-90863.00,67.89350,21.10530,359.48000,2245857.87,866843.12,5886966.07
13945.766700,9.72,-1.80,-0.01,0.00,7.00,-6.00,-90863.00,67.89350,21.10530,359.48000,2245857.87,866843.12,5886966.07
13945.866600,9.72,-1.82,-0.02,-1.00,3.00,-3.00,-90863.00,67.89350,21.10530,359.48000,2245857.87,866843.12,5886966.07
13945.966600,9.72,-1.82,-0.02,3.00,-4.00,0.00,-90863.00,67.89350,21.10530,359.48000,2245857.87,866843.12,5886966.07
13946.078500,9.71,-1.81,-0.02,0.00,-7.00,0.00,-90863.00,67.89350,21.10530,359.48000,2245857.87,866843.12,5886966.07
13946.166600,9.72,-1.79,-0.03,0.00,-5.00,7.00,-90863.00,67.89350,21.10530,359.48000,2245857.87,866843.12,5886966.07
13946.264300,9.73,-1.82,-0.02,-1.00,-1.00,5.00,-90863.00,67.89350,21.10530,359.48000,2245857.87,866843.12,5886966.07
13946.364400,9.73,-1.81,-0.02,0.00,1.00,0.00,-90863.00,67.89350,21.10530,359.48000,2245857.87,866843.12,5886966.07
13946.464300,9.73,-1.82,-0.02,3.00,-0.00,6.00,-90863.00,67.89350,21.10530,359.48000,2245857.87,866843.12,5886966.07
13946.564300,9.72,-1.82,-0.03,3.00,1.00,1.00,-90863.00,67.89350,21.10530,359.48000,2245857.87,866843.12,5886966.07
13946.664300,9.71,-1.81,-0.02,0.00,-6.00,4.00,-90863.00,67.89350,21.10530,359.48000,2245857.87,866843.12,5886966.07
13946.764400,9.70,-1.79,-0.03,0.00,-1.00,-1.00,-90863.00,67.89350,21.10530,359.48000,2245857.87,866843.12,5886966.07
13946.864300,9.72,-1.82,-0.02,4.00,4.00,-2.00,-90863.00,67.89350,21.10530,352.82000,2245857.87,866843.12,5886966.07
13946.964300,9.71,-1.82,-0.03,1.00,-0.00,1.00,-90863.00,67.89350,21.10530,352.82000,2245857.87,866843.12,5886966.07
13947.064400,9.72,-1.83,-0.02,-1.00,1.00,-4.00,-90863.00,67.89350,21.10530,352.82000,2245857.87,866843.12,5886966.07
13947.164400,9.71,-1.81,-0.02,0.00,-0.00,0.00,-90863.00,67.89350,21.10530,352.82000,2245857.87,866843.12,5886966.07
13947.230800,9.73,-1.80,0.00,0.00,-1.00,1.00,-90863.00,67.89350,21.10520,352.82000,2245857.04,866838.29,5886959.90
13947.330900,9.72,-1.80,-0.02,7.00,4.00,1.00,-90863.00,67.89350,21.10520,352.82000,2245857.04,866838.29,5886959.90
13947.430800,9.73,-1.80,-0.03,-6.00,-3.00,0.00,-90863.00,67.89350,21.10520,352.82000,2245857.04,866838.29,5886959.90
13947.530800,9.72,-1.80,-0.01,-6.00,-1.00,-4.00,-90863.00,67.89350,21.10520,352.82000,2245857.04,866838.29,5886959.90
13947.630700,9.72,-1.82,-0.03,0.00,3.00,1.00,-90863.00,67.89350,21.10520,352.82000,2245857.04,866838.29,5886959.90
13947.731000,9.73,-1.80,-0.02,-4.00,3.00,-6.00,-90863.00,67.89350,21.10520,352.82000,2245857.04,866838.29,5886959.90
13947.830900,9.71,-1.81,-0.03,5.00,-0.00,-5.00,-90863.00,67.89350,21.10520,352.82000,2245857.04,866838.29,5886959.90
13947.930900,9.72,-1.81,-0.02,3.00,1.00,-4.00,-701778.00,67.89350,21.10520,352.82000,2245857.04,866838.29,5886959.90
13948.030900,9.72,-1.82,-0.02,5.00,3.00,0.00,-701778.00,67.89350,21.10520,352.82000,2245857.04,866838.29,5886959.90
13948.130900,9.71,-1.81,-0.02,1.00,-0.00,-2.00,-701778.00,67.89350,21.10520,352.82000,2245857.04,866838.29,5886959.90
13948.234000,9.72,-1.82,-0.02,0.00,-0.00,4.00,-701778.00,67.89350,21.10520,352.82000,2245857.04,866838.29,5886959.90
13948.334000,9.73,-1.81,-0.02,1.00,1.00,0.00,-701778.00,67.89350,21.10520,352.82000,2245857.04,866838.29,5886959.90
13948.434000,9.73,-1.81,-0.03,0.00,-4.00,5.00,-701778.00,67.89350,21.10520,352.82000,2245857.04,866838.29,5886959.90
13948.534000,9.72,-1.81,-0.02,-5.00,1.00,-5.00,-701778.00,67.89350,21.10520,352.82000,2245857.04,866838.29,5886959.90
13948.634000,9.71,-1.82,-0.02,1.00,-2.00,5.00,-701778.00,67.89350,21.10520,352.82000,2245857.04,866838.29,5886959.90
13948.733800,9.72,-1.81,-0.03,-6.00,-3.00,4.00,-701778.00,67.89350,21.10520,352.82000,2245857.04,866838.29,5886959.90
13948.834000,9.73,-1.80,-0.02,0.00,-0.00,1.00,-701778.00,67.89350,21.10520,351.54000,2245857.04,866838.29,5886959.90
13948.934000,9.71,-1.81,-0.02,2.00,-1.00,0.00,-701778.00,67.89350,21.10520,351.54000,2245857.04,866838.29,5886959.90
13949.034000,9.71,-1.81,-0.02,6.00,-5.00,5.00,-701778.00,67.89350,21.10520,351.54000,2245857.04,866838.29,5886959.90
13949.134000,9.73,-1.81,-0.02,2.00,5.00,1.00,-701778.00,67.89350,21.10520,351.54000,2245857.04,866838.29,5886959.90
13949.265000,9.73,-1.81,-0.03,-2.00,-0.00,1.00,-701778.00,67.89350,21.10510,351.54000,2245858.11,866834.20,5886958.72
13949.365000,9.71,-1.81,-0.02,4.00,3.00,-5.00,-701778.00,67.89350,21.10510,351.54000,2245858.11,866834.20,5886958.72
13949.465000,9.71,-1.82,-0.02,-2.00,-0.00,2.00,-701778.00,67.89350,21.10510,351.54000,2245858.11,866834.20,5886958.72
13949.565000,9.73,-1.81,-0.02,8.00,2.00,-10.00,-701778.00,67.89350,21.10510,351.54000,2245858.11,866834.20,5886958.72
13949.665000,9.71,-1.81,-0.02,0.00,-0.00,0.00,-701778.00,67.89350,21.10510,351.54000,2245858.11,866834.20,5886958.72
13949.765100,9.71,-1.81,-0.02,1.00,10.00,5.00,-701778.00,67.89350,21.10510,351.54000,2245858.11,866834.20,5886958.72
13949.865000,9.72,-1.81,-0.02,5.00,-0.00,4.00,-701778.00,67.89350,21.10510,351.54000,2245858.11,866834.20,5886958.72
13949.965000,9.71,-1.82,-0.01,3.00,-3.00,2.00,-701778.00,67.89350,21.10510,351.54000,2245858.11,866834.20,5886958.72
13950.064800,9.71,-1.81,-0.02,4.00,3.00,0.00,-701778.00,67.89350,21.10510,351.54000,2245858.11,866834.20,5886958.72
13950.165000,9.72,-1.82,-0.03,-3.00,-2.00,-7.00,-701778.00,67.89350,21.10510,351.54000,2245858.11,866834.20,5886958.72
13950.264600,9.72,-1.81,-0.04,-1.00,2.00,-1.00,-701778.00,67.89350,21.10510,351.54000,2245858.11,866834.20,5886958.72
13950.364700,9.71,-1.81,-0.03,-2.00,3.00,4.00,-701778.00,67.89350,21.10510,351.54000,2245858.11,866834.20,5886958.72
13950.464600,9.71,-1.82,-0.03,4.00,2.00,0.00,-701778.00,67.89350,21.10510,351.54000,2245858.11,866834.20,5886958.72
13950.564600,9.73,-1.81,-0.02,0.00,-1.00,3.00,-701778.00,67.89350,21.10510,351.54000,2245858.11,866834.20,5886958.72
13950.664600,9.72,-1.81,-0.02,-2.00,-0.00,-4.00,-701778.00,67.89350,21.10510,351.54000,2245858.11,866834.20,5886958.72
13950.764700,9.73,-1.80,-0.03,0.00,-3.00,-5.00,-701778.00,67.89350,21.10510,351.54000,2245858.11,866834.20,5886958.72
13950.864400,9.71,-1.80,-0.02,-1.00,-0.00,-1.00,-701778.00,67.89350,21.10510,344.53000,2245858.11,866834.20,5886958.72
13950.964600,9.72,-1.80,-0.02,-1.00,-2.00,-2.00,-466662.00,67.89350,21.10510,344.53000,2245858.11,866834.20,5886958.72
13951.064600,9.71,-1.81,-0.03,0.00,1.00,-1.00,-466662.00,67.89350,21.10510,344.53000,2245858.11,866834.20,5886958.72
13951.164700,9.72,-1.80,-0.02,-4.00,-0.00,3.00,-466662.00,67.89350,21.10510,344.53000,2245858.11,866834.20,5886958.72
13951.265000,9.72,-1.82,-0.02,-2.00,2.00,-1.00,-466662.00,67.89350,21.10510,344.53000,2245855.64,866833.25,5886952.22
13951.365000,9.71,-1.81,-0.03,-1.00,-3.00,2.00,-466662.00,67.89350,21.10510,344.53000,2245855.64,866833.25,5886952.22
13951.504200,9.72,-1.79,-0.02,4.00,-6.00,5.00,-466662.00,67.89350,21.10510,344.53000,2245855.64,866833.25,5886952.22
13951.565000,9.73,-1.81,-0.02,3.00,-5.00,1.00,-466662.00,67.89350,21.10510,344.53000,2245855.64,866833.25,5886952.22
13951.665000,9.72,-1.81,-0.03,1.00,-3.00,0.00,-466662.00,67.89350,21.10510,344.53000,2245855.64,866833.25,5886952.22
13951.765100,9.71,-1.81,-0.02,2.00,-1.00,4.00,-466662.00,67.89350,21.10510,344.53000,2245855.64,866833.25,5886952.22
13951.865000,9.70,-1.82,-0.03,2.00,-1.00,5.00,-466662.00,67.89350,21.10510,344.53000,2245855.64,866833.25,5886952.22
13951.965000,9.72,-1.81,-0.02,-2.00,5.00,4.00,-466662.00,67.89350,21.10510,344.53000,2245855.64,866833.25,5886952.22
13952.065000,9.72,-1.81,-0.01,-2.00,-2.00,-1.00,-466662.00,67.89350,21.10510,344.53000,2245855.64,866833.25,5886952.22
13952.165000,9.71,-1.82,-0.02,2.00,2.00,7.00,-466662.00,67.89350,21.10510,344.53000,2245855.64,866833.25,5886952.22
13952.265000,9.70,-1.81,-0.01,5.00,4.00,-3.00,-466662.00,67.89350,21.10510,344.53000,2245855.64,866833.25,5886952.22
13952.365000,9.72,-1.82,-0.03,0.00,-8.00,2.00,-466662.00,67.89350,21.10510,344.53000,2245855.64,866833.25,5886952.22
13952.464800,9.73,-1.80,-0.02,2.00,1.00,-3.00,-466662.00,67.89350,21.10510,344.53000,2245855.64,866833.25,5886952.22
13952.880000,9.71,-1.80,-0.02,-3.00,-1.00,-2.00,-466662.00,67.89350,21.10510,344.53000,2245855.64,866833.25,5886952.22
13952.912500,9.71,-1.82,-0.01,-1.00,-0.00,-3.00,-466662.00,67.89350,21.10510,344.53000,2245855.64,866833.25,5886952.22
13952.945100,9.73,-1.81,-0.02,0.00,-3.00,-3.00,-466662.00,67.89350,21.10510,344.53000,2245855.64,866833.25,5886952.22
13952.977700,9.73,-1.81,-0.02,-1.00,3.00,-4.00,-466662.00,67.89350,21.10510,344.53000,2245855.64,866833.25,5886952.22
13953.010200,9.71,-1.81,-0.02,3.00,-0.00,-2.00,-466662.00,67.89350,21.10510,344.53000,2245855.64,866833.25,5886952.22
13953.065000,9.73,-1.81,-0.02,3.00,-0.00,-1.00,-466662.00,67.89350,21.10510,364.92000,2245855.64,866833.25,5886952.22
13953.165000,9.71,-1.82,-0.02,2.00,-2.00,-3.00,-466662.00,67.89350,21.10510,364.92000,2245855.64,866833.25,5886952.22
13953.234800,9.73,-1.81,-0.02,0.00,4.00,5.00,-466662.00,67.89350,21.10510,364.92000,2245862.80,866836.01,5886971.11
13953.334900,9.72,-1.82,-0.02,0.00,-1.00,0.00,-466662.00,67.89350,21.10510,364.92000,2245862.80,866836.01,5886971.11
13953.434800,9.72,-1.82,-0.02,8.00,-4.00,-2.00,-466662.00,67.89350,21.10510,364.92000,2245862.80,866836.01,5886971.11
13953.534800,9.72,-1.80,-0.01,6.00,-5.00,-2.00,-466662.00,67.89350,21.10510,364.92000,2245862.80,866836.01,5886971.11
13953.647300,9.71,-1.82,-0.01,-2.00,-4.00,0.00,-466662.00,67.89350,21.10510,364.92000,2245862.80,866836.01,5886971.11
13953.734800,9.70,-1.80,-0.04,0.00,6.00,-6.00,-466662.00,67.89350,21.10510,364.92000,2245862.80,866836.01,5886971.11
13953.834800,9.72,-1.82,-0.01,9.00,-1.00,4.00,-466662.00,67.89350,21.10510,364.92000,2245862.80,866836.01,5886971.11
13953.934900,9.72,-1.82,-0.02,7.00,1.00,-7.00,100172.00,67.89350,21.10510,364.92000,2245862.80,866836.01,5886971.11
13954.034800,9.71,-1.81,-0.02,-1.00,-6.00,-1.00,100172.00,67.89350,21.10510,364.92000,2245862.80,866836.01,5886971.11
13954.134900,9.72,-1.82,-0.01,-3.00,7.00,0.00,100172.00,67.89350,21.10510,364.92000,2245862.80,866836.01,5886971.11
13954.238000,9.73,-1.82,-0.03,1.00,5.00,1.00,100172.00,67.89350,21.10510,364.92000,2245862.80,866836.01,5886971.11
13954.338000,9.73,-1.81,-0.02,0.00,-3.00,0.00,100172.00,67.89350,21.10510,364.92000,2245862.80,866836.01,5886971.11
13954.438000,9.72,-1.81,-0.03,-2.00,3.00,6.00,100172.00,67.89350,21.10510,364.92000,2245862.80,866836.01,5886971.11
13954.537900,9.72,-1.81,-0.03,2.00,10.00,-6.00,100172.00,67.89350,21.10510,364.92000,2245862.80,866836.01,5886971.11
13954.637800,9.72,-1.81,-0.02,-10.00,3.00,0.00,100172.00,67.89350,21.10510,364.92000,2245862.80,866836.01,5886971.11
13954.737800,9.72,-1.81,-0.02,-4.00,3.00,0.00,100172.00,67.89350,21.10510,364.92000,2245862.80,866836.01,5886971.11
13954.837800,9.72,-1.82,-0.02,-1.00,1.00,0.00,100172.00,67.89350,21.10510,361.07000,2245862.80,866836.01,5886971.11
13954.938000,9.72,-1.79,-0.03,-8.00,-2.00,6.00,100172.00,67.89350,21.10510,361.07000,2245862.80,866836.01,5886971.11
13955.038000,9.72,-1.81,-0.03,3.00,4.00,-1.00,100172.00,67.89350,21.10510,361.07000,2245862.80,866836.01,5886971.11
13955.138000,9.71,-1.81,-0.02,4.00,-3.00,-1.00,100172.00,67.89350,21.10510,361.07000,2245862.80,866836.01,5886971.11
13955.266400,9.73,-1.82,-0.03,8.00,7.00,4.00,100172.00,67.89350,21.10510,361.07000,2245861.45,866835.49,5886967.55
13955.366500,9.73,-1.83,-0.02,6.00,-8.00,3.00,100172.00,67.89350,21.10510,361.07000,2245861.45,866835.49,5886967.55
13955.466500,9.71,-1.82,-0.01,5.00,-7.00,-6.00,100172.00,67.89350,21.10510,361.07000,2245861.45,866835.49,5886967.55
13955.566400,9.72,-1.80,-0.02,-3.00,2.00,-3.00,100172.00,67.89350,21.10510,361.07000,2245861.45,866835.49,5886967.55
13955.666400,9.71,-1.83,-0.03,1.00,4.00,-5.00,100172.00,67.89350,21.10510,361.07000,2245861.45,866835.49,5886967.55
13955.766500,9.72,-1.80,-0.03,5.00,5.00,-2.00,100172.00,67.89350,21.10510,361.07000,2245861.45,866835.49,5886967.55
13955.866400,9.71,-1.83,-0.01,4.00,-5.00,-3.00,100172.00,67.89350,21.10510,361.07000,2245861.45,866835.49,5886967.55
13955.966400,9.71,-1.82,-0.02,1.00,2.00,-4.00,100172.00,67.89350,21.10510,361.07000,2245861.45,866835.49,5886967.55
13956.066600,9.72,-1.81,-0.02,0.00,5.00,-5.00,100172.00,67.89350,21.10510,361.07000,2245861.45,866835.49,5886967.55
13956.166500,9.71,-1.80,-0.01,1.00,-1.00,0.00,100172.00,67.89350,21.10510,361.07000,2245861.45,866835.49,5886967.55
13956.263300,9.72,-1.82,-0.02,0.00,4.00,4.00,100172.00,67.89350,21.10510,361.07000,2245861.45,866835.49,5886967.55
13956.363300,9.72,-1.80,-0.02,4.00,3.00,-1.00,100172.00,67.89350,21.10510,361.07000,2245861.45,866835.49,5886967.55
13956.463300,9.73,-1.82,-0.01,-3.00,-1.00,1.00,100172.00,67.89350,21.10510,361.07000,2245861.45,866835.49,5886967.55
13956.563300,9.72,-1.80,-0.02,-7.00,-0.00,1.00,100172.00,67.89350,21.10510,361.07000,2245861.45,866835.49,5886967.55
13956.663300,9.72,-1.81,-0.02,-3.00,6.00,0.00,100172.00,67.89350,21.10510,361.07000,2245861.45,866835.49,5886967.55
13956.763400,9.72,-1.82,-0.03,-4.00,-0.00,0.00,100172.00,67.89350,21.10510,361.07000,2245861.45,866835.49,5886967.55
13956.863300,9.71,-1.81,-0.03,-1.00,8.00,3.00,100172.00,67.89350,21.10510,359.93000,2245861.45,866835.49,5886967.55
13956.963300,9.72,-1.81,-0.02,5.00,-0.00,3.00,100169.00,67.89350,21.10510,359.93000,2245861.45,866835.49,5886967.55
13957.063300,9.71,-1.81,-0.03,4.00,-0.00,7.00,100169.00,67.89350,21.10510,359.93000,2245861.45,866835.49,5886967.55
13957.163300,9.72,-1.81,-0.02,0.00,-0.00,0.00,100169.00,67.89350,21.10510,359.93000,2245861.45,866835.49,5886967.55
13957.266500,9.71,-1.82,-0.01,2.00,-2.00,-2.00,100169.00,67.89350,21.10510,359.93000,2245861.05,866835.34,5886966.49
13957.366500,9.72,-1.81,-0.01,2.00,1.00,-4.00,100169.00,67.89350,21.10510,359.93000,2245861.05,866835.34,5886966.49
13957.466500,9.73,-1.80,-0.02,-5.00,2.00,0.00,100169.00,67.89350,21.10510,359.93000,2245861.05,866835.34,5886966.49
13957.566500,9.71,-1.80,-0.03,-1.00,1.00,2.00,100169.00,67.89350,21.10510,359.93000,2245861.05,866835.34,5886966.49
13957.666500,9.73,-1.80,-0.02,6.00,1.00,-2.00,100169.00,67.89350,21.10510,359.93000,2245861.05,866835.34,5886966.49
13957.766600,9.72,-1.81,-0.02,0.00,3.00,0.00,100169.00,67.89350,21.10510,359.93000,2245861.05,866835.34,5886966.49
13957.866500,9.73,-1.81,0.00,0.00,-5.00,2.00,100169.00,67.89350,21.10510,359.93000,2245861.05,866835.34,5886966.49
13957.966500,9.71,-1.81,-0.02,0.00,2.00,-3.00,100169.00,67.89350,21.10510,359.93000,2245861.05,866835.34,5886966.49
13958.066600,9.71,-1.81,-0.02,3.00,-0.00,-2.00,100169.00,67.89350,21.10510,359.93000,2245861.05,866835.34,5886966.49
13958.166600,9.72,-1.81,-0.02,2.00,-1.00,2.00,100169.00,67.89350,21.10510,359.93000,2245861.05,866835.34,5886966.49
13958.266600,9.73,-1.82,-0.03,1.00,-5.00,5.00,100169.00,67.89350,21.10510,359.93000,2245861.05,866835.34,5886966.49
13958.366600,9.73,-1.82,-0.02,8.00,5.00,-1.00,100169.00,67.89350,21.10510,359.93000,2245861.05,866835.34,5886966.49
13958.466500,9.72,-1.82,-0.02,-4.00,-0.00,1.00,100169.00,67.89350,21.10510,359.93000,2245861.05,866835.34,5886966.49
13958.566500,9.72,-1.81,-0.02,1.00,-6.00,-3.00,100169.00,67.89350,21.10510,359.93000,2245861.05,866835.34,5886966.49
13958.666500,9.72,-1.81,-0.02,-10.00,2.00,3.00,100169.00,67.89350,21.10510,359.93000,2245861.05,866835.34,5886966.49
13958.766600,9.72,-1.81,-0.01,7.00,-1.00,1.00,100169.00,67.89350,21.10510,359.93000,2245861.05,866835.34,5886966.49
13958.866500,9.73,-1.82,-0.02,3.00,-0.00,1.00,100169.00,67.89350,21.10510,359.96000,2245861.05,866835.34,5886966.49
13958.966500,9.72,-1.81,-0.01,-1.00,3.00,6.00,100169.00,67.89350,21.10510,359.96000,2245861.05,866835.34,5886966.49
13959.093900,9.71,-1.82,-0.02,0.00,-2.00,-6.00,100169.00,67.89350,21.10510,359.96000,2245861.05,866835.34,5886966.49
13959.166600,9.72,-1.80,-0.02,-1.00,-2.00,-2.00,100169.00,67.89350,21.10510,359.96000,2245861.05,866835.34,5886966.49
13959.237700,9.72,-1.82,-0.03,0.00,1.00,6.00,100169.00,67.89350,21.10520,359.96000,2245859.55,866839.26,5886966.52
13959.337800,9.71,-1.80,-0.01,1.00,-0.00,-3.00,100169.00,67.89350,21.10520,359.96000,2245859.55,866839.26,5886966.52
13959.437500,9.73,-1.81,-0.02,0.00,-4.00,6.00,100169.00,67.89350,21.10520,359.96000,2245859.55,866839.26,5886966.52
13959.537700,9.72,-1.82,-0.02,-1.00,1.00,-4.00,100169.00,67.89350,21.10520,359.96000,2245859.55,866839.26,5886966.52
13959.637700,9.73,-1.81,-0.02,-1.00,2.00,-2.00,100169.00,67.89350,21.10520,359.96000,2245859.55,866839.26,5886966.52
13959.737800,9.72,-1.80,-0.02,-3.00,-2.00,0.00,100169.00,67.89350,21.10520,359.96000,2245859.55,866839.26,5886966.52
13959.837700,9.72,-1.81,-0.02,2.00,2.00,2.00,100169.00,67.89350,21.10520,359.96000,2245859.55,866839.26,5886966.52
13959.937700,9.71,-1.81,-0.03,2.00,-0.00,-2.00,100169.00,67.89350,21.10520,359.96000,2245859.55,866839.26,5886966.52
13960.037700,9.71,-1.80,-0.03,-2.00,5.00,3.00,100169.00,67.89350,21.10520,359.96000,2245859.55,866839.26,5886966.52
13960.151200,9.73,-1.82,-0.02,2.00,-4.00,5.00,100169.00,67.89350,21.10520,359.96000,2245859.55,866839.26,5886966.52
13960.240700,9.72,-1.81,-0.02,-7.00,-1.00,0.00,100169.00,67.89350,21.10520,359.96000,2245859.55,866839.26,5886966.52
13960.340800,9.71,-1.82,-0.03,0.00,1.00,5.00,100169.00,67.89350,21.10520,359.96000,2245859.55,866839.26,5886966.52
13960.440700,9.72,-1.80,-0.02,3.00,-6.00,-9.00,100169.00,67.89350,21.10520,359.96000,2245859.55,866839.26,5886966.52
13960.540700,9.71,-1.82,-0.02,6.00,2.00,-1.00,100169.00,67.89350,21.10520,359.96000,2245859.55,866839.26,5886966.52
13960.640700,9.72,-1.82,-0.02,-3.00,1.00,1.00,100169.00,67.89350,21.10520,359.96000,2245859.55,866839.26,5886966.52
13960.740600,9.71,-1.82,-0.01,4.00,-1.00,2.00,100169.00,67.89350,21.10520,359.96000,2245859.55,866839.26,5886966.52
13960.840700,9.72,-1.81,-0.02,2.00,2.00,0.00,100169.00,67.89350,21.10520,356.25000,2245859.55,866839.26,5886966.52
13960.940700,9.71,-1.81,-0.02,0.00,1.00,1.00,100169.00,67.89350,21.10520,356.25000,2245859.55,866839.26,5886966.52
13961.040800,9.73,-1.82,-0.04,14.00,-3.00,-1.00,100169.00,67.89350,21.10520,356.25000,2245859.55,866839.26,5886966.52
13961.140800,9.71,-1.82,-0.02,-1.00,-11.00,2.00,100169.00,67.89350,21.10520,356.25000,2245859.55,866839.26,5886966.52
13961.276400,9.73,-1.81,-0.02,-4.00,-1.00,1.00,100169.00,67.89350,21.10520,356.25000,2245859.55,866839.26,5886966.52
13961.365600,9.71,-1.81,-0.03,-1.00,-1.00,-1.00,100169.00,67.89350,21.10520,356.25000,2245858.25,866838.76,5886963.08
13961.465500,9.70,-1.82,-0.02,8.00,-0.00,-2.00,100169.00,67.89350,21.10520,356.25000,2245858.25,866838.76,5886963.08
13961.565500,9.71,-1.80,-0.03,3.00,-3.00,-1.00,100169.00,67.89350,21.10520,356.25000,2245858.25,866838.76,5886963.08
13961.665500,9.71,-1.80,-0.03,5.00,2.00,3.00,100169.00,67.89350,21.10520,356.25000,2245858.25,866838.76,5886963.08
13961.765600,9.72,-1.81,-0.03,0.00,-1.00,0.00,100169.00,67.89350,21.10520,356.25000,2245858.25,866838.76,5886963.08
13961.865500,9.73,-1.82,-0.02,0.00,3.00,-3.00,100169.00,67.89350,21.10520,356.25000,2245858.25,866838.76,5886963.08
13961.965500,9.72,-1.81,-0.03,-2.00,-0.00,1.00,100169.00,67.89350,21.10520,356.25000,2245858.25,866838.76,5886963.08
13962.065600,9.73,-1.82,-0.03,1.00,-3.00,0.00,100169.00,67.89350,21.10520,356.25000,2245858.25,866838.76,5886963.08
13962.165600,9.72,-1.82,-0.03,5.00,-3.00,2.00,100169.00,67.89350,21.10520,356.25000,2245858.25,866838.76,5886963.08
13962.265500,9.72,-1.81,-0.03,0.00,-1.00,7.00,100169.00,67.89350,21.10520,356.25000,2245858.25,866838.76,5886963.08
13962.368400,9.72,-1.82,-0.02,-3.00,-0.00,-1.00,100169.00,67.89350,21.10520,356.25000,2245858.25,866838.76,5886963.08
13962.465400,9.71,-1.81,-0.02,0.00,3.00,4.00,100169.00,67.89350,21.10520,356.25000,2245858.25,866838.76,5886963.08
13962.565500,9.73,-1.82,-0.01,-1.00,-2.00,-1.00,100169.00,67.89350,21.10520,356.25000,2245858.25,866838.76,5886963.08
13962.665500,9.71,-1.82,-0.02,0.00,3.00,-3.00,100169.00,67.89350,21.10520,356.25000,2245858.25,866838.76,5886963.08
13962.765600,9.71,-1.83,-0.02,-9.00,-1.00,0.00,100169.00,67.89350,21.10520,356.25000,2245858.25,866838.76,5886963.08
13962.865500,9.72,-1.80,-0.02,-2.00,3.00,-3.00,100169.00,67.89350,21.10520,361.41000,2245858.25,866838.76,5886963.08
13962.965500,9.71,-1.82,-0.02,-1.00,-4.00,0.00,-90441.00,67.89350,21.10520,361.41000,2245858.25,866838.76,5886963.08
13963.065600,9.71,-1.81,-0.02,-1.00,1.00,0.00,-90441.00,67.89350,21.10520,361.41000,2245858.25,866838.76,5886963.08
13963.165600,9.73,-1.80,-0.03,2.00,-6.00,0.00,-90441.00,67.89350,21.10520,361.41000,2245858.25,866838.76,5886963.08
13963.266400,9.71,-1.82,-0.02,5.00,5.00,0.00,-90441.00,67.89350,21.10510,361.41000,2245861.57,866835.54,5886967.86
13963.366500,9.73,-1.80,-0.02,3.00,-5.00,2.00,-90441.00,67.89350,21.10510,361.41000,2245861.57,866835.54,5886967.86
13963.753700,9.72,-1.82,-0.02,-7.00,6.00,4.00,-90441.00,67.89350,21.10510,361.41000,2245861.57,866835.54,5886967.86
13963.786700,9.72,-1.82,-0.02,2.00,-10.00,-4.00,-90441.00,67.89350,21.10510,361.41000,2245861.57,866835.54,5886967.86
13963.819200,9.72,-1.81,-0.03,-5.00,1.00,4.00,-90441.00,67.89350,21.10510,361.41000,2245861.57,866835.54,5886967.86
13963.851800,9.71,-1.81,-0.03,-1.00,-5.00,2.00,-90441.00,67.89350,21.10510,361.41000,2245861.57,866835.54,5886967.86
13963.884500,9.72,-1.81,-0.03,-2.00,-3.00,3.00,-90441.00,67.89350,21.10510,361.41000,2245861.57,866835.54,5886967.86
13963.966400,9.73,-1.81,-0.02,4.00,-3.00,-4.00,-90441.00,67.89350,21.10510,361.41000,2245861.57,866835.54,5886967.86
13964.066500,9.72,-1.82,-0.03,-2.00,1.00,-1.00,-90441.00,67.89350,21.10510,361.41000,2245861.57,866835.54,5886967.86
13964.166500,9.73,-1.82,-0.03,-2.00,1.00,-3.00,-90441.00,67.89350,21.10510,361.41000,2245861.57,866835.54,5886967.86
13964.266500,9.72,-1.82,-0.03,0.00,1.00,1.00,-90441.00,67.89350,21.10510,361.41000,2245861.57,866835.54,5886967.86
13964.366500,9.71,-1.81,-0.01,-5.00,-1.00,-3.00,-90441.00,67.89350,21.10510,361.41000,2245861.57,866835.54,5886967.86
13964.466300,9.71,-1.83,-0.01,-2.00,1.00,0.00,-90441.00,67.89350,21.10510,361.41000,2245861.57,866835.54,5886967.86
13964.566400,9.71,-1.81,-0.02,2.00,-3.00,-3.00,-90441.00,67.89350,21.10510,361.41000,2245861.57,866835.54,5886967.86
13964.666500,9.71,-1.82,-0.03,0.00,4.00,0.00,-90441.00,67.89350,21.10510,361.41000,2245861.57,866835.54,5886967.86
13964.766500,9.71,-1.81,-0.02,2.00,-6.00,-4.00,-90441.00,67.89350,21.10510,361.41000,2245861.57,866835.54,5886967.86
13964.866500,9.71,-1.81,-0.02,-3.00,1.00,-1.00,-90441.00,67.89350,21.10510,360.27000,2245861.57,866835.54,5886967.86
13964.966500,9.73,-1.82,-0.04,1.00,-0.00,0.00,-90441.00,67.89350,21.10510,360.27000,2245861.57,866835.54,5886967.86
13965.066500,9.71,-1.82,-0.02,-5.00,5.00,0.00,-90441.00,67.89350,21.10510,360.27000,2245861.57,866835.54,5886967.86
13965.166500,9.73,-1.82,-0.02,-1.00,-2.00,0.00,-90441.00,67.89350,21.10510,360.27000,2245861.57,866835.54,5886967.86
13965.243900,9.73,-1.80,-0.03,2.00,-2.00,2.00,-90441.00,67.89350,21.10510,360.27000,2245861.17,866835.38,5886966.80
13965.344000,9.72,-1.82,-0.03,-4.00,-1.00,0.00,-90441.00,67.89350,21.10510,360.27000,2245861.17,866835.38,5886966.80
13965.443900,9.73,-1.81,-0.03,-3.00,-0.00,0.00,-90441.00,67.89350,21.10510,360.27000,2245861.17,866835.38,5886966.80
13965.543900,9.72,-1.81,-0.01,3.00,-1.00,2.00,-90441.00,67.89350,21.10510,360.27000,2245861.17,866835.38,5886966.80
13965.643900,9.71,-1.80,-0.02,-1.00,4.00,3.00,-90441.00,67.89350,21.10510,360.27000,2245861.17,866835.38,5886966.80
13965.744000,9.71,-1.81,-0.01,2.00,2.00,-1.00,-90441.00,67.89350,21.10510,360.27000,2245861.17,866835.38,5886966.80
13965.843900,9.71,-1.80,-0.01,-3.00,-2.00,1.00,-90441.00,67.89350,21.10510,360.27000,2245861.17,866835.38,5886966.80
13965.943900,9.71,-1.82,-0.02,0.00,-3.00,0.00,100168.00,67.89350,21.10510,360.27000,2245861.17,866835.38,5886966.80
13966.044000,9.72,-1.82,-0.02,0.00,-0.00,1.00,100168.00,67.89350,21.10510,360.27000,2245861.17,866835.38,5886966.80
13966.144000,9.71,-1.82,-0.02,3.00,1.00,-1.00,100168.00,67.89350,21.10510,360.27000,2245861.17,866835.38,5886966.80
13966.243800,9.71,-1.83,-0.02,-1.00,-2.00,3.00,100168.00,67.89350,21.10510,360.27000,2245861.17,866835.38,5886966.80
13966.344000,9.72,-1.81,-0.02,5.00,1.00,-4.00,100168.00,67.89350,21.10510,360.27000,2245861.17,866835.38,5886966.80
13966.443900,9.72,-1.82,-0.03,0.00,5.00,2.00,100168.00,67.89350,21.10510,360.27000,2245861.17,866835.38,5886966.80
13966.544000,9.72,-1.82,-0.02,-2.00,1.00,4.00,100168.00,67.89350,21.10510,360.27000,2245861.17,866835.38,5886966.80
13966.670500,9.72,-1.82,-0.04,4.00,1.00,0.00,100168.00,67.89350,21.10510,360.27000,2245861.17,866835.38,5886966.80
13966.744000,9.71,-1.81,-0.01,0.00,2.00,0.00,100168.00,67.89350,21.10510,360.27000,2245861.17,866835.38,5886966.80
13966.844000,9.71,-1.81,-0.02,0.00,8.00,2.00,100168.00,67.89350,21.10510,360.51000,2245861.17,866835.38,5886966.80
13966.944000,9.73,-1.82,-0.03,2.00,-5.00,0.00,100168.00,67.89350,21.10510,360.51000,2245861.17,866835.38,5886966.80
13967.044000,9.71,-1.81,-0.02,-8.00,-4.00,0.00,100168.00,67.89350,21.10510,360.51000,2245861.17,866835.38,5886966.80
13967.144100,9.71,-1.80,-0.02,6.00,-4.00,-1.00,100168.00,67.89350,21.10510,360.51000,2245861.17,866835.38,5886966.80
13967.266500,9.72,-1.81,-0.02,2.00,-0.00,4.00,100168.00,67.89350,21.10510,360.51000,2245861.25,866835.42,5886967.03
13967.366500,9.71,-1.83,-0.01,-4.00,-8.00,3.00,100168.00,67.89350,21.10510,360.51000,2245861.25,866835.42,5886967.03
13967.466300,9.72,-1.81,-0.02,4.00,-2.00,-2.00,100168.00,67.89350,21.10510,360.51000,2245861.25,866835.42,5886967.03
13967.566400,9.71,-1.80,-0.04,3.00,-0.00,0.00,100168.00,67.89350,21.10510,360.51000,2245861.25,866835.42,5886967.03
13967.666400,9.71,-1.81,-0.02,4.00,-1.00,-1.00,100168.00,67.89350,21.10510,360.51000,2245861.25,866835.42,5886967.03
13967.777800,9.72,-1.81,-0.03,0.00,2.00,1.00,100168.00,67.89350,21.10510,360.51000,2245861.25,866835.42,5886967.03
13967.866500,9.72,-1.81,-0.01,-3.00,-5.00,0.00,100168.00,67.89350,21.10510,360.51000,2245861.25,866835.42,5886967.03
13967.966400,9.72,-1.80,-0.02,1.00,-8.00,2.00,100168.00,67.89350,21.10510,360.51000,2245861.25,866835.42,5886967.03
13968.066500,9.73,-1.80,-0.02,6.00,-1.00,1.00,100168.00,67.89350,21.10510,360.51000,2245861.25,866835.42,5886967.03
13968.166500,9.73,-1.80,-0.02,2.00,-2.00,0.00,100168.00,67.89350,21.10510,360.51000,2245861.25,866835.42,5886967.03
13968.266400,9.71,-1.80,-0.02,-3.00,4.00,-2.00,100168.00,67.89350,21.10510,360.51000,2245861.25,866835.42,5886967.03
13968.366500,9.73,-1.81,-0.01,-3.00,-6.00,-6.00,100168.00,67.89350,21.10510,360.51000,2245861.25,866835.42,5886967.03
13968.466500,9.72,-1.81,-0.02,-4.00,-2.00,-5.00,100168.00,67.89350,21.10510,360.51000,2245861.25,866835.42,5886967.03
13968.566500,9.72,-1.80,-0.02,4.00,5.00,-3.00,100168.00,67.89350,21.10510,360.51000,2245861.25,866835.42,5886967.03
13968.666500,9.72,-1.81,-0.02,0.00,-0.00,1.00,100168.00,67.89350,21.10510,360.51000,2245861.25,866835.42,5886967.03
13968.766500,9.73,-1.82,-0.02,6.00,-1.00,-2.00,100168.00,67.89350,21.10510,360.51000,2245861.25,866835.42,5886967.03
13968.875800,9.72,-1.80,-0.02,0.00,3.00,5.00,100168.00,67.89350,21.10510,360.51000,2245861.25,866835.42,5886967.03
13968.966500,9.72,-1.82,-0.02,-2.00,-4.00,1.00,100170.00,67.89350,21.10510,360.51000,2245861.25,866835.42,5886967.03
13969.066500,9.71,-1.80,-0.02,2.00,-4.00,2.00,100170.00,67.89350,21.10510,360.51000,2245861.25,866835.42,5886967.03
13969.166500,9.72,-1.82,-0.02,-4.00,2.00,-2.00,100170.00,67.89350,21.10510,360.51000,2245861.25,866835.42,5886967.03
13969.266300,9.72,-1.81,-0.02,-3.00,-0.00,2.00,100170.00,67.89350,21.10510,360.51000,2245861.25,866835.42,5886967.03
13969.366500,9.72,-1.81,-0.02,-6.00,-3.00,-1.00,100170.00,67.89350,21.10510,360.51000,2245861.25,866835.42,5886967.03
13969.466500,9.72,-1.81,-0.02,-5.00,2.00,0.00,100170.00,67.89350,21.10510,360.51000,2245861.25,866835.42,5886967.03
13969.566300,9.72,-1.80,-0.02,4.00,-0.00,0.00,100170.00,67.89350,21.10510,360.51000,2245861.25,866835.42,5886967.03
13969.666500,9.72,-1.80,-0.02,3.00,-2.00,6.00,100170.00,67.89350,21.10510,360.51000,2245861.25,866835.42,5886967.03
13969.766600,9.71,-1.81,-0.02,0.00,-9.00,7.00,100170.00,67.89350,21.10510,360.51000,2245861.25,866835.42,5886967.03
13969.866500,9.72,-1.81,-0.03,1.00,-0.00,0.00,100170.00,67.89350,21.10510,360.51000,2245861.25,866835.42,5886967.03
